SubNo,"Group(1=OHRHV,SLRLV; 2=OHRLV,SLRHV; 3=OLRHV,SHRLV, 4 = OLRLV,SHRHV)",Block_trial,Block,VarDist_cond,Run_number,Targ1_position,Targ2_position,Red_targ_digit,Blue_targ_digit,Response,Targ_Choice,Acc,RewardOutcome(0=inaccurate;1=lowReward;2=highReward),VarianceOutcome(0=inaccurate; 1=lowVariance; 2=highVariance),OutcomeValue,Points,RT,Optimal_Choice,Repeat_Switch,Original_SubNo
1,1,1,1,2,1,38,13,5,2,5,1,1,2.0,2.0,3.8,3.8,2.863,1,,1
1,1,2,1,2,2,35,27,3,5,3,1,1,2.0,2.0,3.22,7.02,1.745,1,1.0,1
1,1,3,1,2,3,11,10,2,5,2,1,1,2.0,2.0,4.06,11.08,3.149,1,1.0,1
1,1,4,1,2,4,9,46,5,3,5,1,1,2.0,2.0,4.14,15.22,1.49,1,1.0,1
1,1,5,1,2,5,6,45,2,4,2,1,1,2.0,2.0,3.46,18.68,3.945,1,1.0,1
1,1,6,1,1,1,50,42,4,2,4,1,1,1.0,1.0,2.14,20.82,2.925,0,1.0,1
1,1,7,1,1,2,41,50,2,4,2,1,1,1.0,1.0,2.14,22.96,2.663,0,1.0,1
1,1,8,1,1,3,35,52,5,3,5,1,1,1.0,1.0,2.0,24.96,1.388,0,1.0,1
1,1,9,1,1,4,24,30,3,4,3,1,1,1.0,1.0,2.04,27.0,4.067,0,1.0,1
1,1,10,1,1,5,17,5,4,3,4,1,1,1.0,1.0,2.02,29.02,2.169,0,1.0,1
1,1,11,1,1,6,54,20,5,3,5,1,1,1.0,1.0,1.98,31.0,3.649,0,1.0,1
1,1,12,1,2,1,24,26,3,2,3,1,1,2.0,2.0,4.34,35.34,3.655,1,1.0,1
1,1,13,1,2,2,17,30,3,5,3,1,1,2.0,2.0,3.72,39.06,2.199,1,1.0,1
1,1,14,1,2,3,11,32,2,4,2,1,1,2.0,2.0,5.03,44.09,2.337,1,1.0,1
1,1,15,1,2,4,30,41,3,5,3,1,1,2.0,2.0,3.94,48.03,1.192,1,1.0,1
1,1,16,1,2,5,8,2,3,5,3,1,1,2.0,2.0,4.05,52.08,1.81,1,1.0,1
1,1,17,1,2,6,14,1,5,4,5,1,1,2.0,2.0,4.5,56.58,2.845,1,1.0,1
1,1,18,1,1,1,15,21,5,4,5,1,1,1.0,1.0,2.01,58.59,1.274,0,1.0,1
1,1,20,1,1,3,4,9,2,5,2,1,1,1.0,1.0,1.9,62.48,2.662,0,1.0,1
1,1,21,1,1,4,10,54,3,5,3,1,1,1.0,1.0,2.03,64.51,4.425,0,1.0,1
1,1,22,1,1,5,5,17,5,2,5,1,1,1.0,1.0,1.84,66.35,6.224,0,1.0,1
1,1,23,1,2,1,39,4,3,5,3,1,1,2.0,2.0,4.34,70.69,2.906,1,1.0,1
1,1,24,1,2,2,47,26,5,3,5,1,1,2.0,2.0,4.77,75.46,2.474,1,1.0,1
1,1,25,1,2,3,29,17,5,3,5,1,1,2.0,2.0,3.67,79.13,0.896,1,1.0,1
1,1,26,1,2,4,36,10,5,2,5,1,1,2.0,2.0,4.4,83.53,2.145,1,1.0,1
1,1,27,1,1,1,51,4,3,2,3,1,1,1.0,1.0,2.15,85.68,1.952,0,1.0,1
1,1,28,1,1,2,16,38,4,2,4,1,1,1.0,1.0,1.81,87.49,3.321,0,1.0,1
1,1,31,1,2,1,36,19,4,5,4,1,1,2.0,2.0,3.81,95.2,2.014,1,1.0,1
1,1,33,1,1,2,45,33,4,5,4,1,1,1.0,1.0,2.1,99.38,5.305,0,1.0,1
1,1,34,1,1,3,16,37,5,2,5,1,1,1.0,1.0,2.08,101.46,1.568,0,1.0,1
1,1,35,1,2,1,26,43,4,3,4,1,1,2.0,2.0,4.61,106.07,3.133,1,1.0,1
1,1,36,1,2,2,31,5,4,3,4,1,1,2.0,2.0,4.32,110.39,1.097,1,1.0,1
1,1,38,1,1,2,50,11,3,4,3,1,1,1.0,1.0,1.86,114.39,5.929,0,1.0,1
1,1,39,1,2,1,5,8,2,4,2,1,1,2.0,2.0,3.99,118.38,2.249,1,1.0,1
1,1,40,1,2,2,26,3,2,4,2,1,1,2.0,2.0,3.93,122.31,2.588,1,1.0,1
1,1,41,1,2,3,45,8,2,3,2,1,1,2.0,2.0,3.24,125.55,2.663,1,1.0,1
1,1,43,1,2,1,14,28,3,2,3,1,1,2.0,2.0,3.5,131.08,1.784,1,1.0,1
1,1,45,1,2,3,47,4,4,3,4,1,1,2.0,2.0,4.67,135.75,3.906,1,,1
1,1,46,1,1,1,12,50,2,3,2,1,1,1.0,1.0,1.91,137.66,1.409,0,1.0,1
1,1,47,1,1,2,45,21,3,4,3,1,1,1.0,1.0,2.06,139.72,4.058,0,1.0,1
1,1,48,1,1,3,45,13,2,3,2,1,1,1.0,1.0,2.03,141.75,6.103,0,1.0,1
1,1,49,1,1,4,13,47,2,5,2,1,1,1.0,1.0,1.89,143.64,5.304,0,1.0,1
1,1,50,1,2,1,51,50,3,4,3,1,1,2.0,2.0,2.98,146.62,1.552,1,1.0,1
1,1,51,1,2,2,47,43,4,3,4,1,1,2.0,2.0,3.97,150.59,2.444,1,1.0,1
1,1,52,1,2,3,4,42,5,4,5,1,1,2.0,2.0,3.52,154.11,1.255,1,1.0,1
1,1,53,1,2,4,22,48,5,2,5,1,1,2.0,2.0,4.29,158.4,2.214,1,1.0,1
1,1,54,1,1,1,13,52,4,2,4,1,1,1.0,1.0,2.06,160.46,4.101,0,1.0,1
1,1,55,1,1,2,16,10,2,3,2,1,1,1.0,1.0,2.2,162.66,2.181,0,1.0,1
1,1,56,1,1,3,29,30,5,3,5,1,1,1.0,1.0,2.07,164.73,2.409,0,1.0,1
1,1,57,1,1,4,34,3,3,2,3,1,1,1.0,1.0,1.92,166.65,2.68,0,1.0,1
1,1,58,1,1,5,2,5,5,3,5,1,1,1.0,1.0,2.04,168.69,1.317,0,1.0,1
1,1,59,1,1,6,49,38,2,4,2,1,1,1.0,1.0,1.88,170.57,3.553,0,1.0,1
1,1,60,1,2,1,40,35,4,5,4,1,1,2.0,2.0,3.99,174.56,2.216,1,1.0,1
1,1,61,1,2,2,24,30,3,2,3,1,1,2.0,2.0,3.98,178.54,2.249,1,1.0,1
1,1,62,1,2,3,17,11,5,2,5,1,1,2.0,2.0,4.0,182.54,1.924,1,1.0,1
1,1,63,1,2,4,52,16,2,5,2,1,1,2.0,2.0,3.85,186.39,2.441,1,1.0,1
1,1,64,1,2,5,23,52,4,5,4,1,1,2.0,2.0,4.52,190.91,3.049,1,1.0,1
1,1,65,1,1,1,39,52,5,4,5,1,1,1.0,1.0,1.78,192.69,4.674,0,1.0,1
1,1,66,1,1,2,47,11,2,3,2,1,1,1.0,1.0,2.05,194.74,2.491,0,1.0,1
1,1,67,1,1,3,24,51,2,5,2,1,1,1.0,1.0,2.11,196.85,1.329,0,1.0,1
1,1,68,1,2,1,31,4,3,5,3,1,1,2.0,2.0,4.34,201.19,3.921,1,1.0,1
1,1,69,1,1,1,3,2,3,4,4,2,1,2.0,2.0,4.27,205.46,3.465,1,2.0,1
1,1,70,1,2,1,52,25,4,2,2,2,1,1.0,1.0,2.0,207.46,3.162,0,1.0,1
1,1,71,1,2,2,18,20,2,5,5,2,1,1.0,1.0,2.08,209.54,2.424,0,1.0,1
1,1,72,1,2,3,38,6,2,3,3,2,1,1.0,1.0,2.07,211.61,1.567,0,1.0,1
1,1,73,1,2,4,50,38,4,2,2,2,1,1.0,1.0,1.97,213.58,6.128,0,1.0,1
1,1,74,1,2,5,30,23,4,3,4,1,1,2.0,2.0,3.82,217.4,0.992,1,2.0,1
1,1,76,1,1,1,43,2,2,5,5,2,1,2.0,2.0,3.3,224.56,1.122,1,2.0,1
1,1,77,1,1,2,50,17,5,4,4,2,1,2.0,2.0,3.89,228.45,1.24,1,1.0,1
1,1,78,1,1,3,14,13,5,4,4,2,1,2.0,2.0,4.06,232.51,4.296,1,1.0,1
1,1,79,1,1,4,23,29,5,2,2,2,1,2.0,2.0,4.15,236.66,2.393,1,1.0,1
1,1,80,1,1,5,47,14,3,2,2,2,1,2.0,2.0,4.68,241.34,1.488,1,1.0,1
1,1,81,1,2,1,3,38,4,3,4,1,1,2.0,2.0,3.83,245.17,1.617,1,2.0,1
1,1,82,1,2,2,16,53,2,4,2,1,1,2.0,2.0,4.29,249.46,1.392,1,1.0,1
1,1,83,1,1,1,40,30,4,5,4,1,1,1.0,1.0,2.09,251.55,4.319,0,1.0,1
1,1,84,1,1,2,4,50,5,4,4,2,1,2.0,2.0,4.44,255.99,1.849,1,2.0,1
1,1,1,2,2,1,30,45,3,4,3,1,1,2.0,2.0,3.53,259.52,2.313,1,,1
1,1,2,2,2,2,15,7,4,5,4,1,1,2.0,2.0,4.1,263.62,1.623,1,1.0,1
1,1,3,2,2,3,18,54,2,3,2,1,1,2.0,2.0,4.11,267.73,3.106,1,1.0,1
1,1,4,2,2,4,13,14,4,2,4,1,1,2.0,2.0,3.53,271.26,1.55,1,1.0,1
1,1,5,2,2,5,23,8,2,4,2,1,1,2.0,2.0,3.65,274.91,2.729,1,1.0,1
1,1,6,2,2,6,35,30,5,2,5,1,1,2.0,2.0,4.51,279.42,3.912,1,1.0,1
1,1,7,2,1,1,36,33,4,3,3,2,1,2.0,2.0,3.94,283.36,2.415,1,2.0,1
1,1,8,2,1,2,3,9,2,4,4,2,1,2.0,2.0,4.18,287.54,1.577,1,1.0,1
1,1,9,2,1,3,9,10,2,5,5,2,1,2.0,2.0,4.04,291.58,1.44,1,1.0,1
1,1,10,2,1,4,18,30,5,2,2,2,1,2.0,2.0,3.7,295.28,4.033,1,1.0,1
1,1,11,2,1,5,48,31,3,5,5,2,1,2.0,2.0,3.74,299.02,1.725,1,1.0,1
1,1,12,2,1,6,34,12,5,4,4,2,1,2.0,2.0,4.21,303.23,1.289,1,1.0,1
1,1,13,2,2,1,17,7,5,3,5,1,1,2.0,2.0,3.55,306.78,2.575,1,2.0,1
1,1,14,2,2,2,45,11,4,2,4,1,1,2.0,2.0,4.37,311.15,4.305,1,1.0,1
1,1,15,2,2,3,32,43,2,4,2,1,1,2.0,2.0,4.27,315.42,2.712,1,1.0,1
1,1,16,2,2,4,12,11,3,4,3,1,1,2.0,2.0,3.61,319.03,1.519,1,1.0,1
1,1,17,2,2,5,24,46,3,4,3,1,1,2.0,2.0,3.87,322.9,3.986,1,1.0,1
1,1,18,2,1,1,49,21,3,2,2,2,1,2.0,2.0,3.44,326.34,1.616,1,2.0,1
1,1,19,2,1,2,38,48,3,5,5,2,1,2.0,2.0,2.96,329.3,3.768,1,1.0,1
1,1,20,2,1,3,38,1,4,5,5,2,1,2.0,2.0,4.46,333.76,1.136,1,1.0,1
1,1,21,2,1,4,5,43,4,2,2,2,1,2.0,2.0,3.76,337.52,3.021,1,1.0,1
1,1,22,2,1,5,33,13,2,5,5,2,1,2.0,2.0,4.15,341.67,2.855,1,1.0,1
1,1,23,2,2,1,51,31,4,2,4,1,1,2.0,2.0,4.11,345.78,1.967,1,2.0,1
1,1,24,2,2,2,37,30,3,4,3,1,1,2.0,2.0,4.01,349.79,4.463,1,1.0,1
1,1,25,2,2,3,44,38,3,2,3,1,1,2.0,2.0,3.53,353.32,2.953,1,1.0,1
1,1,26,2,2,4,31,25,5,3,5,1,1,2.0,2.0,3.55,356.87,1.897,1,1.0,1
1,1,27,2,1,1,18,24,4,2,2,2,1,2.0,2.0,3.82,360.69,3.53,1,2.0,1
1,1,28,2,2,1,5,39,5,4,5,1,1,2.0,2.0,3.44,364.13,3.056,1,2.0,1
1,1,29,2,2,2,50,39,2,4,2,1,1,2.0,2.0,3.5,367.63,1.56,1,1.0,1
1,1,30,2,2,3,16,41,3,5,3,1,1,2.0,2.0,4.69,372.32,3.449,1,1.0,1
1,1,31,2,1,1,11,53,2,5,5,2,1,2.0,2.0,4.03,376.35,1.64,1,2.0,1
1,1,32,2,1,2,46,24,3,5,5,2,1,2.0,2.0,3.43,379.78,3.182,1,1.0,1
1,1,33,2,2,1,17,8,2,3,2,1,1,2.0,2.0,3.98,383.76,2.864,1,2.0,1
1,1,34,2,2,2,26,9,2,4,2,1,1,2.0,2.0,3.47,387.23,2.169,1,1.0,1
1,1,35,2,1,1,34,17,3,2,2,2,1,2.0,2.0,3.36,390.59,1.376,1,2.0,1
1,1,36,2,1,2,49,51,5,2,2,2,1,2.0,2.0,3.88,394.47,1.383,1,1.0,1
1,1,37,2,1,3,49,13,3,2,2,2,1,2.0,2.0,4.45,398.92,2.593,1,1.0,1
1,1,38,2,2,1,20,49,3,4,3,1,1,2.0,2.0,4.06,402.98,3.674,1,2.0,1
1,1,39,2,1,1,5,3,5,3,3,2,1,2.0,2.0,4.31,407.29,1.886,1,2.0,1
1,1,40,2,1,2,13,32,2,3,3,2,1,2.0,2.0,3.45,410.74,2.849,1,1.0,1
1,1,41,2,1,3,53,38,2,5,5,2,1,2.0,2.0,3.78,414.52,3.865,1,1.0,1
1,1,42,2,1,4,47,17,2,3,3,2,1,2.0,2.0,3.88,418.4,1.689,1,1.0,1
1,1,43,2,2,1,16,48,5,4,5,1,1,2.0,2.0,3.43,421.83,1.621,1,2.0,1
1,1,44,2,2,2,32,14,3,5,5,2,1,1.0,1.0,1.84,423.67,2.559,0,2.0,1
1,1,45,2,2,3,1,20,4,2,4,1,1,2.0,2.0,4.44,428.11,1.384,1,2.0,1
1,1,46,2,1,1,11,13,5,3,3,2,1,2.0,2.0,4.01,432.12,2.96,1,2.0,1
1,1,47,2,1,2,24,26,4,3,3,2,1,2.0,2.0,3.7,435.82,3.104,1,1.0,1
1,1,48,2,1,3,1,37,5,4,4,2,1,2.0,2.0,4.38,440.2,1.857,1,1.0,1
1,1,49,2,2,1,52,45,2,3,3,2,1,1.0,1.0,2.03,442.23,2.122,0,1.0,1
1,1,50,2,1,1,40,2,4,2,2,2,1,2.0,2.0,3.53,445.76,3.248,1,1.0,1
1,1,51,2,2,1,14,52,4,3,3,2,1,1.0,1.0,2.16,447.92,1.88,0,1.0,1
1,1,52,2,2,2,48,22,4,3,3,2,1,1.0,1.0,2.03,449.95,3.456,0,1.0,1
1,1,53,2,2,3,44,3,4,5,5,2,1,1.0,1.0,2.17,452.12,4.0,0,1.0,1
1,1,54,2,2,4,46,44,2,5,2,1,1,2.0,2.0,4.54,456.66,3.526,1,2.0,1
1,1,55,2,1,1,14,49,2,3,3,2,1,2.0,2.0,3.68,460.34,2.272,1,2.0,1
1,1,56,2,1,2,12,50,5,4,4,2,1,2.0,2.0,3.39,463.73,4.405,1,1.0,1
1,1,57,2,2,1,45,15,3,4,3,1,1,2.0,2.0,3.97,467.7,3.777,1,2.0,1
1,1,58,2,2,2,23,9,3,2,3,1,1,2.0,2.0,3.84,471.54,5.037,1,1.0,1
1,1,59,2,2,3,25,48,4,3,4,1,1,2.0,2.0,3.6,475.14,2.634,1,1.0,1
1,1,60,2,2,4,27,41,4,5,4,1,1,2.0,2.0,4.23,479.37,2.726,1,1.0,1
1,1,61,2,2,5,28,1,3,4,3,1,1,2.0,2.0,4.7,484.07,2.354,1,1.0,1
1,1,62,2,2,6,20,11,3,5,3,1,1,2.0,2.0,3.74,487.81,2.047,1,1.0,1
1,1,63,2,1,1,22,21,5,3,3,2,1,2.0,2.0,3.6,491.41,2.776,1,2.0,1
1,1,64,2,1,2,22,37,4,5,5,2,1,2.0,2.0,3.88,495.29,2.303,1,1.0,1
1,1,65,2,1,3,25,22,2,4,4,2,1,2.0,2.0,4.31,499.6,2.455,1,1.0,1
1,1,66,2,1,4,20,29,5,4,4,2,1,2.0,2.0,3.6,503.2,1.296,1,1.0,1
1,1,67,2,1,5,13,3,5,2,2,2,1,2.0,2.0,3.43,506.63,3.169,1,1.0,1
1,1,68,2,2,1,43,51,2,3,2,1,1,2.0,2.0,3.94,510.57,3.024,1,2.0,1
1,1,69,2,2,2,17,4,2,4,2,1,1,2.0,2.0,3.97,514.54,1.972,1,1.0,1
1,1,70,2,2,3,1,42,4,5,4,1,1,2.0,2.0,4.23,518.77,3.174,1,1.0,1
1,1,71,2,2,4,22,8,4,3,4,1,1,2.0,2.0,3.72,522.49,2.559,1,1.0,1
1,1,72,2,2,5,6,52,2,5,2,1,1,2.0,2.0,3.93,526.42,2.003,1,1.0,1
1,1,73,2,1,1,4,49,5,2,2,2,1,2.0,2.0,3.8,530.22,2.472,1,2.0,1
1,1,74,2,1,2,42,32,5,2,2,2,1,2.0,2.0,3.96,534.18,1.447,1,1.0,1
1,1,75,2,1,3,35,50,5,3,3,2,1,2.0,2.0,4.72,538.9,2.081,1,1.0,1
1,1,76,2,1,4,51,1,3,2,2,2,1,2.0,2.0,3.71,542.61,1.038,1,1.0,1
1,1,77,2,2,1,19,1,5,4,5,1,1,2.0,2.0,3.37,545.98,4.272,1,2.0,1
1,1,78,2,2,2,36,30,5,2,5,1,1,2.0,2.0,4.22,550.2,2.559,1,1.0,1
1,1,79,2,1,1,53,28,2,5,5,2,1,2.0,2.0,3.57,553.77,1.386,1,2.0,1
1,1,80,2,1,2,27,34,4,3,3,2,1,2.0,2.0,4.02,557.79,5.738,1,1.0,1
1,1,81,2,1,3,52,21,3,5,5,2,1,2.0,2.0,3.7,561.49,2.143,1,1.0,1
1,1,82,2,1,4,28,3,3,2,2,2,1,2.0,2.0,4.25,565.74,1.377,1,1.0,1
1,1,83,2,1,5,11,1,4,5,5,2,1,2.0,2.0,4.26,570.0,1.169,1,1.0,1
1,1,84,2,1,6,22,23,5,3,3,2,1,2.0,2.0,3.9,573.9,3.024,1,1.0,1
1,1,1,3,1,1,2,14,5,4,4,2,1,2.0,2.0,3.03,576.93,3.313,1,,1
1,1,2,3,1,2,3,37,4,3,3,2,1,2.0,2.0,4.06,580.99,4.438,1,1.0,1
1,1,3,3,1,3,32,33,5,2,2,2,1,2.0,2.0,4.75,585.74,1.095,1,1.0,1
1,1,4,3,1,4,52,15,2,4,4,2,1,2.0,2.0,4.48,590.22,0.881,1,1.0,1
1,1,5,3,1,5,21,13,5,4,4,2,1,2.0,2.0,3.26,593.48,1.602,1,1.0,1
1,1,6,3,1,6,16,43,3,4,4,2,1,2.0,2.0,3.96,597.44,2.898,1,1.0,1
1,1,7,3,2,1,44,5,4,3,4,1,1,2.0,2.0,3.68,601.12,3.712,1,2.0,1
1,1,8,3,1,1,38,31,3,5,5,2,1,2.0,2.0,3.52,604.64,2.96,1,2.0,1
1,1,9,3,1,2,8,14,2,4,4,2,1,2.0,2.0,3.42,608.06,1.6,1,1.0,1
1,1,10,3,1,3,7,42,3,5,5,2,1,2.0,2.0,4.14,612.2,2.68,1,1.0,1
1,1,11,3,2,1,18,17,4,5,4,1,1,2.0,2.0,3.8,616.0,4.432,1,2.0,1
1,1,12,3,2,2,10,46,2,5,2,1,1,2.0,2.0,4.03,620.03,1.72,1,1.0,1
1,1,13,3,2,3,26,7,5,4,5,1,1,2.0,2.0,3.83,623.86,1.353,1,1.0,1
1,1,14,3,1,1,52,50,3,4,4,2,1,2.0,2.0,3.78,627.64,1.896,1,2.0,1
1,1,15,3,1,2,27,4,4,5,5,2,1,2.0,2.0,4.17,631.81,2.966,1,1.0,1
1,1,16,3,2,1,8,35,3,2,3,1,1,2.0,2.0,4.34,636.15,3.656,1,2.0,1
1,1,17,3,2,2,42,29,5,3,5,1,1,2.0,2.0,5.0,641.15,3.128,1,1.0,1
1,1,18,3,2,3,48,8,2,5,2,1,1,2.0,2.0,3.36,644.51,2.961,1,1.0,1
1,1,19,3,2,4,20,49,2,4,2,1,1,2.0,2.0,3.52,648.03,2.559,1,1.0,1
1,1,20,3,2,5,14,21,5,2,5,1,1,2.0,2.0,4.49,652.52,1.625,1,1.0,1
1,1,21,3,1,1,51,11,3,5,5,2,1,2.0,2.0,3.82,656.34,1.55,1,2.0,1
1,1,22,3,1,2,13,25,5,2,2,2,1,2.0,2.0,3.35,659.69,1.8,1,1.0,1
1,1,23,3,1,3,15,23,5,3,5,1,1,1.0,1.0,2.04,661.73,2.153,0,2.0,1
1,1,24,3,1,4,4,32,5,4,4,2,1,2.0,2.0,4.73,666.46,1.864,1,2.0,1
1,1,25,3,1,5,22,35,4,2,4,1,1,1.0,1.0,2.08,668.54,2.057,0,2.0,1
1,1,26,3,2,1,27,43,4,5,4,1,1,2.0,2.0,4.92,673.46,2.874,1,1.0,1
1,1,27,3,2,2,11,24,4,2,2,2,1,1.0,1.0,2.06,675.52,1.295,0,2.0,1
1,1,28,3,1,1,20,43,2,3,3,2,1,2.0,2.0,4.88,680.4,3.071,1,1.0,1
1,1,29,3,1,2,32,25,5,2,2,2,1,2.0,2.0,3.84,684.24,2.467,1,1.0,1
1,1,30,3,1,3,26,13,3,4,4,2,1,2.0,2.0,3.46,687.7,2.264,1,1.0,1
1,1,31,3,1,4,33,6,2,5,5,2,1,2.0,2.0,3.9,691.6,1.329,1,1.0,1
1,1,32,3,2,1,18,45,4,3,4,1,1,2.0,2.0,4.56,696.16,2.391,1,2.0,1
1,1,33,3,2,2,52,35,3,5,3,1,1,2.0,2.0,3.47,699.63,2.879,1,1.0,1
1,1,34,3,2,3,46,18,5,3,5,1,1,2.0,2.0,4.3,703.93,1.926,1,1.0,1
1,1,35,3,2,4,16,8,2,3,2,1,1,2.0,2.0,3.72,707.65,1.552,1,1.0,1
1,1,36,3,1,1,27,7,2,3,3,2,1,2.0,2.0,4.26,711.91,2.833,1,2.0,1
1,1,37,3,2,1,34,52,5,4,5,1,1,2.0,2.0,3.48,715.39,2.344,1,2.0,1
1,1,38,3,2,2,38,20,2,3,2,1,1,2.0,2.0,4.04,719.43,2.54,1,1.0,1
1,1,39,3,2,3,35,44,4,2,4,1,1,2.0,2.0,3.06,722.49,2.222,1,1.0,1
1,1,40,3,2,4,43,16,4,2,4,1,1,2.0,2.0,3.77,726.26,3.184,1,1.0,1
1,1,41,3,2,5,42,11,4,3,4,1,1,2.0,2.0,4.22,730.48,2.776,1,1.0,1
1,1,42,3,2,6,13,29,2,4,2,1,1,2.0,2.0,3.85,734.33,1.088,1,1.0,1
1,1,43,3,1,1,16,44,4,5,5,2,1,2.0,2.0,4.58,738.91,3.695,1,2.0,1
1,1,44,3,1,2,39,28,5,3,3,2,1,2.0,2.0,3.7,742.61,1.694,1,1.0,1
1,1,45,3,2,1,11,32,4,2,4,1,1,2.0,2.0,2.9,745.51,1.632,1,2.0,1
1,1,46,3,1,1,36,52,3,2,2,2,1,2.0,2.0,3.42,748.93,1.294,1,2.0,1
1,1,47,3,1,2,51,34,2,3,3,2,1,2.0,2.0,4.5,753.43,1.91,1,1.0,1
1,1,48,3,1,3,52,25,2,4,4,2,1,2.0,2.0,3.95,757.38,2.4,1,1.0,1
1,1,49,3,1,4,46,43,4,5,5,2,1,2.0,2.0,4.18,761.56,3.133,1,1.0,1
1,1,50,3,1,5,33,34,5,4,4,2,1,2.0,2.0,4.44,766.0,3.826,1,1.0,1
1,1,51,3,2,1,50,54,3,2,3,1,1,2.0,2.0,3.0,769.0,1.967,1,2.0,1
1,1,52,3,2,2,8,2,2,5,2,1,1,2.0,2.0,3.7,772.7,3.378,1,1.0,1
1,1,53,3,2,3,9,53,3,5,3,1,1,2.0,2.0,3.67,776.37,1.297,1,1.0,1
1,1,54,3,2,4,54,34,4,5,4,1,1,2.0,2.0,3.52,779.89,1.745,1,1.0,1
1,1,55,3,1,1,54,4,3,5,5,2,1,2.0,2.0,3.91,783.8,3.13,1,2.0,1
1,1,56,3,1,2,34,19,3,2,2,2,1,2.0,2.0,4.72,788.52,3.392,1,1.0,1
1,1,57,3,1,3,44,29,5,2,2,2,1,2.0,2.0,3.98,792.5,1.289,1,1.0,1
1,1,58,3,1,4,51,40,2,5,5,2,1,2.0,2.0,4.58,797.08,2.574,1,1.0,1
1,1,59,3,2,1,30,43,5,3,5,1,1,2.0,2.0,3.67,800.75,1.751,1,2.0,1
1,1,60,3,2,2,14,29,5,3,5,1,1,2.0,2.0,4.0,804.75,1.287,1,1.0,1
1,1,61,3,2,3,12,24,2,3,2,1,1,2.0,2.0,3.63,808.38,0.729,1,1.0,1
1,1,62,3,2,4,4,44,3,4,3,1,1,2.0,2.0,4.28,812.66,4.257,1,1.0,1
1,1,63,3,2,5,10,6,4,2,4,1,1,2.0,2.0,3.88,816.54,1.744,1,1.0,1
1,1,64,3,2,6,45,54,2,4,2,1,1,2.0,2.0,4.23,820.77,3.551,1,1.0,1
1,1,65,3,1,1,32,7,4,3,3,2,1,2.0,2.0,4.31,825.08,2.823,1,2.0,1
1,1,66,3,1,2,43,14,3,4,4,2,1,2.0,2.0,3.96,829.04,2.439,1,1.0,1
1,1,67,3,1,3,41,32,2,3,3,2,1,2.0,2.0,4.42,833.46,1.632,1,1.0,1
1,1,68,3,1,4,50,28,3,2,2,2,1,2.0,2.0,5.09,838.55,1.322,1,1.0,1
1,1,69,3,1,5,21,6,4,5,5,2,1,2.0,2.0,4.25,842.8,2.313,1,1.0,1
1,1,70,3,1,6,17,25,5,2,2,2,1,2.0,2.0,3.99,846.79,2.529,1,1.0,1
1,1,71,3,2,1,48,44,5,2,5,1,1,2.0,2.0,4.43,851.22,3.378,1,2.0,1
1,1,72,3,2,2,4,27,4,2,4,1,1,2.0,2.0,4.03,855.25,3.026,1,1.0,1
1,1,73,3,2,3,39,42,3,5,3,1,1,2.0,2.0,3.48,858.73,4.087,1,1.0,1
1,1,74,3,1,1,47,10,3,2,2,2,1,2.0,2.0,4.23,862.96,2.179,1,2.0,1
1,1,75,3,1,2,17,5,2,4,4,2,1,2.0,2.0,4.0,866.96,1.976,1,1.0,1
1,1,76,3,1,3,25,36,4,3,3,2,1,2.0,2.0,3.87,870.83,2.343,1,1.0,1
1,1,77,3,2,1,38,22,2,5,2,1,1,2.0,2.0,4.6,875.43,4.691,1,2.0,1
1,1,78,3,2,2,18,11,5,3,5,1,1,2.0,2.0,4.88,880.31,2.688,1,1.0,1
1,1,79,3,2,3,44,17,2,5,2,1,1,2.0,2.0,3.75,884.06,2.098,1,1.0,1
1,1,80,3,2,4,41,36,4,3,4,1,1,2.0,2.0,4.05,888.11,2.327,1,1.0,1
1,1,81,3,2,5,24,38,3,2,3,1,1,2.0,2.0,3.62,891.73,2.65,1,1.0,1
1,1,82,3,1,1,21,35,3,4,4,2,1,2.0,2.0,4.32,896.05,2.018,1,2.0,1
1,1,83,3,2,1,17,53,5,4,5,1,1,2.0,2.0,2.89,898.94,4.143,1,2.0,1
1,1,84,3,2,2,40,38,3,4,3,1,1,2.0,2.0,4.47,903.41,3.61,1,1.0,1
1,1,1,4,2,1,19,47,5,3,5,1,1,2.0,2.0,4.1,907.51,3.353,1,,1
1,1,2,4,2,2,50,40,3,5,3,1,1,2.0,2.0,4.12,911.63,1.633,1,1.0,1
1,1,3,4,2,3,11,52,3,2,3,1,1,2.0,2.0,4.57,916.2,2.161,1,1.0,1
1,1,4,4,2,4,4,50,4,2,4,1,1,2.0,2.0,3.87,920.07,2.6,1,1.0,1
1,1,5,4,2,5,11,37,2,4,2,1,1,2.0,2.0,3.94,924.01,0.946,1,1.0,1
1,1,6,4,1,1,16,45,2,3,3,2,1,2.0,2.0,3.4,927.41,3.007,1,2.0,1
1,1,7,4,1,2,53,6,2,4,4,2,1,2.0,2.0,3.22,930.63,4.167,1,1.0,1
1,1,8,4,1,3,37,22,3,5,5,2,1,2.0,2.0,3.67,934.3,3.521,1,1.0,1
1,1,9,4,1,4,15,28,4,3,3,2,1,2.0,2.0,4.13,938.43,2.31,1,1.0,1
1,1,10,4,1,5,12,48,5,4,4,2,1,2.0,2.0,3.74,942.17,3.718,1,1.0,1
1,1,11,4,1,6,23,52,3,4,4,2,1,2.0,2.0,3.37,945.54,1.637,1,1.0,1
1,1,12,4,2,1,22,37,5,2,5,1,1,2.0,2.0,4.51,950.05,2.54,1,2.0,1
1,1,13,4,2,2,4,44,3,2,3,1,1,2.0,2.0,3.66,953.71,2.757,1,1.0,1
1,1,14,4,2,3,31,14,3,5,3,1,1,2.0,2.0,3.99,957.7,1.705,1,1.0,1
1,1,15,4,2,4,30,20,4,2,4,1,1,2.0,2.0,4.0,961.7,1.104,1,1.0,1
1,1,16,4,2,5,6,29,5,3,5,1,1,2.0,2.0,3.88,965.58,2.442,1,1.0,1
1,1,17,4,2,6,9,47,2,3,2,1,1,2.0,2.0,4.19,969.77,1.311,1,1.0,1
1,1,18,4,1,1,54,44,5,3,3,2,1,2.0,2.0,3.88,973.65,3.368,1,2.0,1
1,1,19,4,1,2,49,26,3,4,4,2,1,2.0,2.0,3.22,976.87,2.47,1,1.0,1
1,1,20,4,1,3,39,46,3,5,5,2,1,2.0,2.0,3.52,980.39,3.401,1,1.0,1
1,1,21,4,1,4,18,52,3,5,5,2,1,2.0,2.0,4.11,984.5,2.137,1,1.0,1
1,1,22,4,1,5,45,2,3,2,2,2,1,2.0,2.0,3.41,987.91,1.489,1,1.0,1
1,1,23,4,2,1,46,27,2,5,2,1,1,2.0,2.0,3.84,991.75,2.905,1,2.0,1
1,1,24,4,2,2,45,29,5,2,5,1,1,2.0,2.0,3.56,995.31,3.136,1,1.0,1
1,1,25,4,2,3,28,44,5,3,5,1,1,2.0,2.0,3.45,998.76,1.134,1,1.0,1
1,1,26,4,2,4,33,14,4,2,4,1,1,2.0,2.0,3.52,1002.28,4.041,1,1.0,1
1,1,27,4,1,1,1,24,4,5,5,2,1,2.0,2.0,3.81,1006.09,3.777,1,2.0,1
1,1,28,4,1,2,33,3,4,3,3,2,1,2.0,2.0,4.08,1010.17,2.054,1,1.0,1
1,1,29,4,1,3,4,42,2,4,4,2,1,2.0,2.0,3.95,1014.12,2.728,1,1.0,1
1,1,30,4,1,4,24,10,5,4,4,2,1,2.0,2.0,4.5,1018.62,3.375,1,1.0,1
1,1,31,4,2,1,46,50,5,4,5,1,1,2.0,2.0,3.88,1022.5,2.409,1,2.0,1
1,1,32,4,1,1,19,13,4,3,3,2,1,2.0,2.0,3.28,1025.78,1.726,1,2.0,1
1,1,33,4,1,2,25,7,4,2,2,2,1,2.0,2.0,4.0,1029.78,1.968,1,1.0,1
1,1,34,4,1,3,25,16,2,5,5,2,1,2.0,2.0,4.03,1033.81,1.038,1,1.0,1
1,1,35,4,2,1,34,53,2,5,2,1,1,2.0,2.0,4.15,1037.96,3.648,1,2.0,1
1,1,36,4,2,2,2,34,4,2,4,1,1,2.0,2.0,4.24,1042.2,1.921,1,1.0,1
1,1,37,4,1,1,24,41,5,4,4,2,1,2.0,2.0,4.6,1046.8,2.696,1,2.0,1
1,1,38,4,1,2,20,5,2,4,4,2,1,2.0,2.0,3.74,1050.54,3.368,1,1.0,1
1,1,39,4,2,1,46,51,3,2,3,1,1,2.0,2.0,4.12,1054.66,2.56,1,2.0,1
1,1,40,4,2,2,52,50,5,3,5,1,1,2.0,2.0,3.99,1058.65,1.944,1,1.0,1
1,1,41,4,2,3,36,3,5,3,5,1,1,2.0,2.0,3.73,1062.38,1.768,1,1.0,1
1,1,42,4,1,1,38,28,2,3,3,2,1,2.0,2.0,5.01,1067.39,1.817,1,2.0,1
1,1,43,4,2,1,9,7,4,5,4,1,1,2.0,2.0,3.88,1071.27,2.815,1,2.0,1
1,1,44,4,2,2,37,15,4,3,4,1,1,2.0,2.0,3.34,1074.61,3.585,1,1.0,1
1,1,45,4,2,3,22,2,4,5,4,1,1,2.0,2.0,4.83,1079.44,3.209,1,1.0,1
1,1,46,4,1,1,50,41,4,5,5,2,1,2.0,2.0,4.15,1083.59,2.569,1,2.0,1
1,1,47,4,1,2,32,10,3,5,5,2,1,2.0,2.0,3.47,1087.06,0.984,1,1.0,1
1,1,48,4,1,3,8,6,2,4,4,2,1,2.0,2.0,4.29,1091.35,2.928,1,1.0,1
1,1,49,4,1,4,33,40,4,3,3,2,1,2.0,2.0,4.6,1095.95,3.985,1,1.0,1
1,1,50,4,2,1,53,21,2,5,2,1,1,2.0,2.0,3.58,1099.53,1.981,1,2.0,1
1,1,51,4,2,2,49,20,2,5,2,1,1,2.0,2.0,4.06,1103.59,1.666,1,1.0,1
1,1,52,4,2,3,17,33,5,4,5,1,1,2.0,2.0,3.93,1107.52,3.305,1,1.0,1
1,1,53,4,2,4,47,14,2,3,2,1,1,2.0,2.0,3.45,1110.97,3.061,1,1.0,1
1,1,54,4,1,1,15,21,4,5,5,2,1,2.0,2.0,4.56,1115.53,2.585,1,2.0,1
1,1,55,4,1,2,4,39,3,4,4,2,1,2.0,2.0,3.99,1119.52,3.201,1,1.0,1
1,1,56,4,1,3,42,39,4,2,2,2,1,2.0,2.0,4.25,1123.77,2.312,1,1.0,1
1,1,57,4,1,4,10,29,5,2,2,2,1,2.0,2.0,3.66,1127.43,1.633,1,1.0,1
1,1,58,4,1,5,36,49,5,2,2,2,1,2.0,2.0,3.69,1131.12,3.072,1,1.0,1
1,1,59,4,1,6,11,20,2,3,2,1,1,1.0,1.0,2.04,1133.16,0.842,0,2.0,1
1,1,60,4,2,1,40,35,5,2,5,1,1,2.0,2.0,4.05,1137.21,3.928,1,1.0,1
1,1,61,4,2,2,3,46,3,2,3,1,1,2.0,2.0,4.87,1142.08,2.109,1,1.0,1
1,1,62,4,2,3,14,9,5,3,5,1,1,2.0,2.0,3.87,1145.95,2.102,1,1.0,1
1,1,63,4,2,4,33,7,2,5,2,1,1,2.0,2.0,5.04,1150.99,1.488,1,1.0,1
1,1,64,4,2,5,5,36,3,2,3,1,1,2.0,2.0,4.71,1155.7,2.977,1,1.0,1
1,1,65,4,1,1,53,19,2,4,4,2,1,2.0,2.0,3.08,1158.78,3.326,1,2.0,1
1,1,66,4,1,2,37,12,4,3,3,2,1,2.0,2.0,3.21,1161.99,2.11,1,1.0,1
1,1,67,4,1,3,17,47,2,3,3,2,1,2.0,2.0,3.73,1165.72,2.552,1,1.0,1
1,1,68,4,2,1,51,47,3,2,3,1,1,2.0,2.0,3.91,1169.63,5.373,1,2.0,1
1,1,69,4,1,1,50,29,3,5,5,2,1,2.0,2.0,4.0,1173.63,1.553,1,2.0,1
1,1,70,4,2,1,39,13,4,3,4,1,1,2.0,2.0,4.39,1178.02,3.96,1,2.0,1
1,1,71,4,2,2,49,5,2,4,2,1,1,2.0,2.0,3.66,1181.68,1.804,1,1.0,1
1,1,72,4,2,3,25,28,2,3,2,1,1,2.0,2.0,3.66,1185.34,2.17,1,1.0,1
1,1,73,4,2,4,1,25,5,2,5,1,1,2.0,2.0,3.91,1189.25,1.286,1,1.0,1
1,1,74,4,2,5,1,20,3,4,3,1,1,2.0,2.0,3.99,1193.24,2.026,1,1.0,1
1,1,75,4,2,6,42,20,4,5,4,1,1,2.0,2.0,4.13,1197.37,2.41,1,1.0,1
1,1,76,4,1,1,6,38,3,4,3,1,1,1.0,1.0,2.12,1199.49,2.826,0,1.0,1
1,1,77,4,1,2,51,1,5,4,4,2,1,2.0,2.0,4.29,1203.78,1.272,1,2.0,1
1,1,78,4,1,3,24,19,3,4,4,2,1,2.0,2.0,3.17,1206.95,3.405,1,1.0,1
1,1,79,4,1,4,25,9,3,4,4,2,1,2.0,2.0,4.33,1211.28,5.815,1,1.0,1
1,1,80,4,1,5,40,29,5,2,2,2,1,2.0,2.0,4.38,1215.66,1.28,1,1.0,1
1,1,81,4,2,1,17,35,5,4,5,1,1,2.0,2.0,4.3,1219.96,2.367,1,2.0,1
1,1,82,4,2,2,9,23,2,5,2,1,1,2.0,2.0,4.62,1224.58,1.665,1,1.0,1
1,1,83,4,1,1,37,19,4,2,2,2,1,2.0,2.0,4.15,1228.73,3.496,1,2.0,1
1,1,84,4,1,2,5,23,4,5,5,2,1,2.0,2.0,3.68,1232.41,3.745,1,1.0,1
2,2,1,1,1,1,39,38,4,5,5,2,1,2.0,1.0,3.95,3.95,5.318,1,,10
2,2,2,1,1,2,42,27,2,3,3,2,1,2.0,1.0,3.8,7.75,4.009,1,1.0,10
2,2,3,1,1,3,8,49,5,2,2,2,1,2.0,1.0,4.01,11.76,3.206,1,1.0,10
2,2,4,1,1,4,51,41,4,5,4,1,1,1.0,2.0,2.14,13.9,2.3,0,2.0,10
2,2,5,1,2,1,20,47,2,5,2,1,1,2.0,1.0,3.86,17.76,7.637,1,1.0,10
2,2,8,1,1,3,45,21,2,4,4,2,1,2.0,1.0,4.14,21.9,1.592,1,,10
2,2,9,1,1,4,47,15,3,4,4,2,1,2.0,1.0,4.14,26.04,3.303,1,1.0,10
2,2,10,1,1,5,23,25,3,5,5,2,1,2.0,1.0,4.0,30.04,2.703,1,1.0,10
2,2,11,1,1,6,40,29,3,4,4,2,1,2.0,1.0,4.04,34.08,5.129,1,1.0,10
2,2,13,1,2,2,26,40,2,5,2,1,1,2.0,1.0,3.98,40.14,2.165,1,2.0,10
2,2,14,1,2,3,20,40,2,5,2,1,1,2.0,1.0,4.09,44.23,7.475,1,1.0,10
2,2,15,1,2,4,52,39,5,4,4,2,1,1.0,2.0,1.72,45.95,5.942,0,2.0,10
2,2,16,1,2,5,14,34,5,2,2,2,1,1.0,2.0,3.03,48.98,2.934,0,1.0,10
2,2,17,1,2,6,51,31,5,3,3,2,1,1.0,2.0,1.94,50.92,1.446,0,1.0,10
2,2,18,1,1,1,22,26,4,2,4,1,1,1.0,2.0,2.05,52.97,6.097,0,2.0,10
2,2,19,1,2,1,40,30,5,4,4,2,1,1.0,2.0,2.5,55.47,1.307,0,2.0,10
2,2,21,1,2,3,47,10,3,2,2,2,1,1.0,2.0,1.95,59.45,4.633,0,1.0,10
2,2,23,1,1,1,11,15,5,2,5,1,1,1.0,2.0,1.61,61.06,4.19,0,,10
2,2,25,1,1,3,44,37,4,5,5,2,1,2.0,1.0,3.84,68.93,7.197,1,1.0,10
2,2,26,1,2,1,24,17,4,3,4,1,1,2.0,1.0,4.08,73.01,1.275,1,2.0,10
2,2,27,1,2,2,24,54,5,4,4,2,1,1.0,2.0,2.77,75.78,3.877,0,2.0,10
2,2,28,1,2,3,45,35,5,2,2,2,1,1.0,2.0,1.67,77.45,1.974,0,1.0,10
2,2,29,1,1,1,42,44,3,5,5,2,1,2.0,1.0,4.1,81.55,2.679,1,1.0,10
2,2,30,1,1,2,42,1,3,5,5,2,1,2.0,1.0,4.15,85.7,1.969,1,1.0,10
2,2,31,1,1,3,40,43,3,4,4,2,1,2.0,1.0,3.81,89.51,2.864,1,1.0,10
2,2,32,1,1,4,24,13,2,4,4,2,1,2.0,1.0,3.83,93.34,1.163,1,1.0,10
2,2,35,1,2,2,42,16,2,4,2,1,1,2.0,1.0,3.95,101.36,3.33,1,1.0,10
2,2,37,1,1,2,53,5,2,3,3,2,1,2.0,1.0,4.08,105.44,2.856,1,,10
2,2,39,1,2,2,8,38,4,5,4,1,1,2.0,1.0,4.1,109.54,2.609,1,,10
2,2,40,1,2,3,33,35,3,2,2,2,1,1.0,2.0,2.34,111.88,3.206,0,2.0,10
2,2,41,1,2,4,13,37,2,3,3,2,1,1.0,2.0,2.61,114.49,2.507,0,1.0,10
2,2,42,1,2,5,18,50,3,2,3,1,1,2.0,1.0,4.08,118.57,4.349,1,2.0,10
2,2,43,1,1,1,49,29,5,4,4,2,1,2.0,1.0,4.14,122.71,5.924,1,2.0,10
2,2,44,1,1,2,45,25,4,2,2,2,1,2.0,1.0,3.86,126.57,1.628,1,1.0,10
2,2,45,1,1,3,33,15,2,5,5,2,1,2.0,1.0,4.0,130.57,6.353,1,1.0,10
2,2,47,1,2,1,11,23,4,2,4,1,1,2.0,1.0,3.98,134.55,4.062,1,,10
2,2,48,1,2,2,44,11,4,2,2,2,1,1.0,2.0,1.24,135.79,3.697,0,2.0,10
2,2,49,1,2,3,16,48,3,5,3,1,1,2.0,1.0,4.03,139.82,5.53,1,2.0,10
2,2,50,1,2,4,12,25,3,5,3,1,1,2.0,1.0,3.88,143.7,1.578,1,1.0,10
2,2,51,1,2,5,25,46,2,4,4,2,1,1.0,2.0,2.67,146.37,7.321,0,2.0,10
2,2,52,1,1,1,24,11,4,2,2,2,1,2.0,1.0,3.91,150.28,3.282,1,1.0,10
2,2,53,1,2,1,22,4,3,4,3,1,1,2.0,1.0,4.06,154.34,3.227,1,2.0,10
2,2,54,1,2,2,48,52,3,5,3,1,1,2.0,1.0,4.03,158.37,3.04,1,1.0,10
2,2,56,1,2,4,28,21,2,3,2,1,1,2.0,1.0,3.74,166.0,3.341,1,1.0,10
2,2,57,1,2,5,12,16,4,3,4,1,1,2.0,1.0,3.99,169.99,1.94,1,1.0,10
2,2,58,1,2,6,29,40,3,4,3,1,1,2.0,1.0,3.88,173.87,1.708,1,1.0,10
2,2,59,1,1,1,52,10,4,5,5,2,1,2.0,1.0,4.07,177.94,2.774,1,2.0,10
2,2,60,1,1,2,31,11,4,5,5,2,1,2.0,1.0,4.06,182.0,1.388,1,1.0,10
2,2,61,1,1,3,46,21,3,2,2,2,1,2.0,1.0,4.2,186.2,3.418,1,1.0,10
2,2,62,1,2,1,50,8,5,2,2,2,1,1.0,2.0,2.28,188.48,3.959,0,1.0,10
2,2,63,1,2,2,35,48,3,2,3,1,1,2.0,1.0,3.92,192.4,4.782,1,2.0,10
2,2,64,1,2,3,23,12,4,2,4,1,1,2.0,1.0,4.04,196.44,5.388,1,1.0,10
2,2,65,1,2,4,41,26,2,5,2,1,1,2.0,1.0,3.88,200.32,4.858,1,1.0,10
2,2,66,1,1,1,16,43,5,3,3,2,1,2.0,1.0,4.0,204.32,8.134,1,2.0,10
2,2,67,1,1,2,6,48,4,3,3,2,1,2.0,1.0,3.99,208.31,2.117,1,1.0,10
2,2,68,1,1,3,53,49,2,5,5,2,1,2.0,1.0,4.0,212.31,2.502,1,1.0,10
2,2,69,1,1,4,16,45,5,3,3,2,1,2.0,1.0,3.96,216.27,3.112,1,1.0,10
2,2,70,1,1,5,47,26,2,4,4,2,1,2.0,1.0,4.13,220.4,1.153,1,1.0,10
2,2,71,1,1,6,39,28,3,4,4,2,1,2.0,1.0,3.78,224.18,2.928,1,1.0,10
2,2,72,1,2,1,1,40,4,2,4,1,1,2.0,1.0,4.05,228.23,2.992,1,2.0,10
2,2,73,1,1,1,20,44,2,5,5,2,1,2.0,1.0,4.11,232.34,4.438,1,2.0,10
2,2,74,1,1,2,52,45,2,3,3,2,1,2.0,1.0,4.09,236.43,5.09,1,1.0,10
2,2,75,1,1,3,12,20,5,4,4,2,1,2.0,1.0,4.07,240.5,1.852,1,1.0,10
2,2,76,1,1,4,28,8,4,3,3,2,1,2.0,1.0,4.0,244.5,1.607,1,1.0,10
2,2,77,1,1,5,23,48,2,3,3,2,1,2.0,1.0,4.08,248.58,3.077,1,1.0,10
2,2,78,1,2,1,53,52,5,2,5,1,1,2.0,1.0,4.07,252.65,1.544,1,2.0,10
2,2,79,1,2,2,15,52,2,4,2,1,1,2.0,1.0,3.97,256.62,3.568,1,1.0,10
2,2,80,1,1,1,24,31,4,3,3,2,1,2.0,1.0,3.96,260.58,2.606,1,2.0,10
2,2,81,1,1,2,9,32,3,2,2,2,1,2.0,1.0,3.97,264.55,2.692,1,1.0,10
2,2,82,1,2,1,8,39,5,2,5,1,1,2.0,1.0,3.83,268.38,3.237,1,2.0,10
2,2,83,1,2,2,28,40,5,3,5,1,1,2.0,1.0,3.97,272.35,5.145,1,1.0,10
2,2,84,1,2,3,34,16,5,4,5,1,1,2.0,1.0,4.01,276.36,2.153,1,1.0,10
2,2,1,2,2,1,24,21,2,3,2,1,1,2.0,1.0,4.04,280.4,6.783,1,,10
2,2,2,2,2,2,46,16,3,5,5,2,1,1.0,2.0,2.68,283.08,6.454,0,2.0,10
2,2,3,2,2,3,39,31,4,3,4,1,1,2.0,1.0,3.96,287.04,2.633,1,2.0,10
2,2,4,2,2,4,37,21,4,5,4,1,1,2.0,1.0,4.07,291.11,3.364,1,1.0,10
2,2,5,2,1,1,39,14,2,4,4,2,1,2.0,1.0,4.09,295.2,2.234,1,2.0,10
2,2,6,2,1,2,29,22,5,2,5,1,1,1.0,2.0,2.44,297.64,1.471,0,2.0,10
2,2,7,2,1,3,17,42,5,4,4,2,1,2.0,1.0,3.88,301.52,2.481,1,2.0,10
2,2,8,2,1,4,1,12,5,4,4,2,1,2.0,1.0,4.02,305.54,1.931,1,1.0,10
2,2,9,2,1,5,14,41,2,3,3,2,1,2.0,1.0,4.03,309.57,3.395,1,1.0,10
2,2,10,2,2,1,50,52,5,4,5,1,1,2.0,1.0,3.88,313.45,5.985,1,2.0,10
2,2,11,2,1,1,39,13,5,3,3,2,1,2.0,1.0,3.91,317.36,1.695,1,2.0,10
2,2,12,2,2,1,12,46,5,2,5,1,1,2.0,1.0,4.13,321.49,2.857,1,2.0,10
2,2,13,2,2,2,1,17,2,5,2,1,1,2.0,1.0,3.98,325.47,1.549,1,1.0,10
2,2,14,2,2,3,27,8,4,2,4,1,1,2.0,1.0,4.05,329.52,6.692,1,1.0,10
2,2,15,2,2,4,26,40,5,3,5,1,1,2.0,1.0,4.01,333.53,5.23,1,1.0,10
2,2,16,2,2,5,6,42,4,5,4,1,1,2.0,1.0,3.93,337.46,2.522,1,1.0,10
2,2,17,2,2,6,48,45,5,4,5,1,1,2.0,1.0,3.93,341.39,3.378,1,1.0,10
2,2,18,2,1,1,54,10,4,5,5,2,1,2.0,1.0,4.05,345.44,2.137,1,2.0,10
2,2,19,2,1,2,20,35,2,4,4,2,1,2.0,1.0,3.89,349.33,4.096,1,1.0,10
2,2,20,2,1,3,33,21,4,5,5,2,1,2.0,1.0,4.09,353.42,1.842,1,1.0,10
2,2,21,2,1,4,50,32,2,3,3,2,1,2.0,1.0,4.07,357.49,3.917,1,1.0,10
2,2,22,2,2,1,12,13,3,5,3,1,1,2.0,1.0,3.9,361.39,4.494,1,2.0,10
2,2,23,2,2,2,29,1,3,4,4,2,1,1.0,2.0,1.87,363.26,1.888,0,2.0,10
2,2,24,2,2,3,17,1,3,2,2,2,1,1.0,2.0,1.44,364.7,1.338,0,1.0,10
2,2,25,2,2,4,30,37,2,3,2,1,1,2.0,1.0,3.74,368.44,1.866,1,2.0,10
2,2,26,2,2,5,2,13,5,3,5,1,1,2.0,1.0,4.12,372.56,2.437,1,1.0,10
2,2,27,2,1,1,51,30,3,4,4,2,1,2.0,1.0,3.94,376.5,1.657,1,2.0,10
2,2,28,2,1,2,42,19,4,2,2,2,1,2.0,1.0,4.04,380.54,2.972,1,1.0,10
2,2,29,2,1,3,35,20,4,3,3,2,1,2.0,1.0,4.03,384.57,3.65,1,1.0,10
2,2,30,2,1,4,2,33,2,5,5,2,1,2.0,1.0,4.0,388.57,1.558,1,1.0,10
2,2,31,2,1,5,39,42,3,5,5,2,1,2.0,1.0,3.88,392.45,3.085,1,1.0,10
2,2,32,2,1,6,27,6,3,2,2,2,1,2.0,1.0,3.89,396.34,2.431,1,1.0,10
2,2,33,2,2,1,8,14,3,2,3,1,1,2.0,1.0,3.96,400.3,1.706,1,2.0,10
2,2,34,2,2,2,26,2,2,5,2,1,1,2.0,1.0,3.86,404.16,3.524,1,1.0,10
2,2,35,2,1,1,19,51,2,5,5,2,1,2.0,1.0,3.88,408.04,4.204,1,2.0,10
2,2,36,2,1,2,45,41,2,5,5,2,1,2.0,1.0,4.17,412.21,3.418,1,1.0,10
2,2,37,2,2,1,13,27,3,2,3,1,1,2.0,1.0,4.01,416.22,1.422,1,2.0,10
2,2,38,2,2,2,41,24,2,4,2,1,1,2.0,1.0,3.86,420.08,3.499,1,1.0,10
2,2,39,2,2,3,3,30,2,3,2,1,1,2.0,1.0,4.0,424.08,1.82,1,1.0,10
2,2,40,2,1,1,48,40,2,5,5,2,1,2.0,1.0,3.87,427.95,2.721,1,2.0,10
2,2,41,2,1,2,10,28,2,5,2,1,1,1.0,2.0,1.36,429.31,1.017,0,2.0,10
2,2,42,2,1,3,11,34,3,4,3,1,1,1.0,2.0,1.88,431.19,1.229,0,1.0,10
2,2,43,2,2,1,10,52,3,4,3,1,1,2.0,1.0,4.11,435.3,2.577,1,1.0,10
2,2,44,2,1,1,23,15,5,2,5,1,1,1.0,2.0,2.06,437.36,2.16,0,1.0,10
2,2,45,2,1,2,7,50,3,5,3,1,1,1.0,2.0,2.31,439.67,6.448,0,1.0,10
2,2,46,2,1,3,15,50,5,3,3,2,1,2.0,1.0,3.86,443.53,1.619,1,2.0,10
2,2,47,2,1,4,29,1,2,3,2,1,1,1.0,2.0,1.78,445.31,1.576,0,2.0,10
2,2,48,2,2,1,5,38,3,5,3,1,1,2.0,1.0,3.97,449.28,4.806,1,1.0,10
2,2,49,2,2,2,48,29,5,4,5,1,1,2.0,1.0,3.86,453.14,1.484,1,1.0,10
2,2,50,2,2,3,53,14,4,2,4,1,1,2.0,1.0,3.84,456.98,2.102,1,1.0,10
2,2,51,2,2,4,3,43,4,5,4,1,1,2.0,1.0,4.11,461.09,2.119,1,1.0,10
2,2,52,2,1,1,21,36,3,4,4,2,1,2.0,1.0,4.0,465.09,5.392,1,2.0,10
2,2,53,2,1,2,25,41,2,4,4,2,1,2.0,1.0,3.92,469.01,3.693,1,1.0,10
2,2,54,2,1,3,5,40,3,2,2,2,1,2.0,1.0,4.09,473.1,5.176,1,1.0,10
2,2,55,2,1,4,13,5,4,2,4,1,1,1.0,2.0,2.11,475.21,2.878,0,2.0,10
2,2,56,2,1,5,3,49,2,4,4,2,1,2.0,1.0,3.88,479.09,1.377,1,2.0,10
2,2,57,2,1,6,20,39,3,5,5,2,1,2.0,1.0,4.16,483.25,2.632,1,1.0,10
2,2,58,2,2,1,26,53,5,4,5,1,1,2.0,1.0,4.03,487.28,1.811,1,2.0,10
2,2,59,2,2,2,9,34,4,3,4,1,1,2.0,1.0,4.17,491.45,2.113,1,1.0,10
2,2,60,2,2,3,22,46,4,2,4,1,1,2.0,1.0,4.13,495.58,2.194,1,1.0,10
2,2,61,2,1,1,7,8,2,4,4,2,1,2.0,1.0,3.92,499.5,2.768,1,2.0,10
2,2,62,2,1,2,54,25,3,4,4,2,1,2.0,1.0,3.85,503.35,1.71,1,1.0,10
2,2,63,2,1,3,22,50,5,3,3,2,1,2.0,1.0,3.99,507.34,3.432,1,1.0,10
2,2,64,2,2,1,19,34,4,2,4,1,1,2.0,1.0,3.96,511.3,3.068,1,2.0,10
2,2,65,2,2,2,38,31,2,3,2,1,1,2.0,1.0,3.9,515.2,2.814,1,1.0,10
2,2,66,2,2,3,6,13,5,4,5,1,1,2.0,1.0,4.06,519.26,2.691,1,1.0,10
2,2,67,2,2,4,15,52,5,2,5,1,1,2.0,1.0,4.18,523.44,1.573,1,1.0,10
2,2,68,2,2,5,42,15,4,3,4,1,1,2.0,1.0,3.94,527.38,3.723,1,1.0,10
2,2,69,2,2,6,52,11,4,2,2,2,1,1.0,2.0,1.6,528.98,1.908,0,2.0,10
2,2,70,2,1,1,54,44,4,3,3,2,1,2.0,1.0,3.97,532.95,7.581,1,1.0,10
2,2,71,2,1,2,42,29,3,4,4,2,1,2.0,1.0,4.08,537.03,2.155,1,1.0,10
2,2,72,2,1,3,19,51,3,2,2,2,1,2.0,1.0,3.9,540.93,1.604,1,1.0,10
2,2,73,2,1,4,37,52,4,5,5,2,1,2.0,1.0,3.86,544.79,1.776,1,1.0,10
2,2,74,2,1,5,16,23,5,2,2,2,1,2.0,1.0,3.99,548.78,2.903,1,1.0,10
2,2,75,2,2,1,52,11,5,2,2,2,1,1.0,2.0,1.97,550.75,1.768,0,1.0,10
2,2,76,2,2,2,46,4,3,5,3,1,1,2.0,1.0,4.06,554.81,2.951,1,2.0,10
2,2,77,2,1,1,3,30,4,3,3,2,1,2.0,1.0,3.93,558.74,1.27,1,2.0,10
2,2,78,2,2,1,51,29,3,2,2,2,1,1.0,2.0,1.93,560.67,1.537,0,1.0,10
2,2,79,2,2,2,20,10,5,3,5,1,1,2.0,1.0,3.95,564.62,2.313,1,2.0,10
2,2,80,2,2,3,44,9,5,3,5,1,1,2.0,1.0,3.99,568.61,2.561,1,1.0,10
2,2,81,2,2,4,23,54,4,5,4,1,1,2.0,1.0,4.18,572.79,2.433,1,1.0,10
2,2,82,2,2,5,49,32,2,4,2,1,1,2.0,1.0,3.93,576.72,2.357,1,1.0,10
2,2,83,2,1,1,41,37,4,3,3,2,1,2.0,1.0,3.84,580.56,2.468,1,2.0,10
2,2,84,2,1,2,15,22,5,2,2,2,1,2.0,1.0,4.06,584.62,2.559,1,1.0,10
2,2,1,3,1,1,39,41,5,4,4,2,1,2.0,1.0,3.89,588.51,3.587,1,,10
2,2,2,3,1,2,48,30,3,4,4,2,1,2.0,1.0,4.0,592.51,0.978,1,1.0,10
2,2,3,3,1,3,29,46,2,4,2,1,1,1.0,2.0,1.7,594.21,1.168,0,2.0,10
2,2,4,3,2,1,2,43,4,5,4,1,1,2.0,1.0,4.06,598.27,2.814,1,1.0,10
2,2,5,3,2,2,9,49,2,5,2,1,1,2.0,1.0,4.07,602.34,2.883,1,1.0,10
2,2,6,3,2,3,38,33,4,5,4,1,1,2.0,1.0,3.98,606.32,3.549,1,1.0,10
2,2,7,3,2,4,4,14,5,2,5,1,1,2.0,1.0,3.76,610.08,2.373,1,1.0,10
2,2,8,3,2,5,36,2,2,3,2,1,1,2.0,1.0,4.02,614.1,2.459,1,1.0,10
2,2,9,3,2,6,37,19,4,2,4,1,1,2.0,1.0,4.19,618.29,2.823,1,1.0,10
2,2,10,3,1,1,41,16,2,3,3,2,1,2.0,1.0,4.12,622.41,3.027,1,2.0,10
2,2,11,3,1,2,50,33,3,2,2,2,1,2.0,1.0,3.81,626.22,3.112,1,1.0,10
2,2,12,3,1,3,13,24,5,3,3,2,1,2.0,1.0,3.99,630.21,3.033,1,1.0,10
2,2,13,3,1,4,52,18,3,2,2,2,1,2.0,1.0,3.92,634.13,2.029,1,1.0,10
2,2,14,3,2,1,3,27,5,2,5,1,1,2.0,1.0,3.88,638.01,1.705,1,2.0,10
2,2,15,3,2,2,39,17,3,4,3,1,1,2.0,1.0,3.85,641.86,1.867,1,1.0,10
2,2,16,3,2,3,35,27,4,5,4,1,1,2.0,1.0,4.03,645.89,1.461,1,1.0,10
2,2,17,3,2,4,3,7,4,2,4,1,1,2.0,1.0,3.95,649.84,0.961,1,1.0,10
2,2,18,3,1,1,19,52,4,5,5,2,1,2.0,1.0,4.01,653.85,1.864,1,2.0,10
2,2,19,3,2,1,38,5,2,4,2,1,1,2.0,1.0,3.96,657.81,1.49,1,2.0,10
2,2,20,3,1,1,50,26,2,5,5,2,1,2.0,1.0,3.95,661.76,1.285,1,2.0,10
2,2,21,3,1,2,41,14,4,3,3,2,1,2.0,1.0,4.04,665.8,2.735,1,1.0,10
2,2,22,3,1,3,53,7,5,3,3,2,1,2.0,1.0,4.09,669.89,2.126,1,1.0,10
2,2,23,3,1,4,48,20,3,2,2,2,1,2.0,1.0,4.25,674.14,2.655,1,1.0,10
2,2,24,3,1,5,4,18,5,4,4,2,1,2.0,1.0,3.84,677.98,2.019,1,1.0,10
2,2,25,3,2,1,14,2,5,4,5,1,1,2.0,1.0,3.88,681.86,2.423,1,2.0,10
2,2,26,3,2,2,5,22,5,2,5,1,1,2.0,1.0,4.12,685.98,2.906,1,1.0,10
2,2,27,3,2,3,32,44,5,4,5,1,1,2.0,1.0,3.95,689.93,1.652,1,1.0,10
2,2,28,3,1,1,36,4,4,3,4,1,1,1.0,2.0,1.35,691.28,2.407,0,1.0,10
2,2,29,3,1,2,13,51,5,4,5,1,1,1.0,2.0,2.15,693.43,1.765,0,1.0,10
2,2,30,3,2,1,11,47,5,2,5,1,1,2.0,1.0,4.18,697.61,3.731,1,1.0,10
2,2,31,3,2,2,47,11,4,2,2,2,1,1.0,2.0,2.33,699.94,1.195,0,2.0,10
2,2,32,3,2,3,20,37,5,3,5,1,1,2.0,1.0,4.23,704.17,4.209,1,2.0,10
2,2,33,3,2,4,19,52,3,5,3,1,1,2.0,1.0,4.06,708.23,2.303,1,1.0,10
2,2,34,3,2,5,44,9,4,2,2,2,1,1.0,2.0,2.88,711.11,2.192,0,2.0,10
2,2,35,3,1,1,3,14,4,5,5,2,1,2.0,1.0,3.96,715.07,2.726,1,1.0,10
2,2,36,3,1,2,23,51,3,4,4,2,1,2.0,1.0,3.87,718.94,3.27,1,1.0,10
2,2,37,3,1,3,38,21,3,5,5,2,1,2.0,1.0,3.98,722.92,3.137,1,1.0,10
2,2,38,3,1,4,51,26,4,3,3,2,1,2.0,1.0,4.14,727.06,1.986,1,1.0,10
2,2,39,3,1,5,4,11,5,3,3,2,1,2.0,1.0,3.87,730.93,1.631,1,1.0,10
2,2,40,3,1,6,12,24,3,4,4,2,1,2.0,1.0,4.07,735.0,4.274,1,1.0,10
2,2,41,3,2,1,31,1,4,5,4,1,1,2.0,1.0,3.93,738.93,4.181,1,2.0,10
2,2,42,3,2,2,46,54,4,3,4,1,1,2.0,1.0,4.06,742.99,3.203,1,1.0,10
2,2,43,3,1,1,15,27,4,2,2,2,1,2.0,1.0,3.87,746.86,2.296,1,2.0,10
2,2,44,3,2,1,20,42,3,2,3,1,1,2.0,1.0,4.01,750.87,2.361,1,2.0,10
2,2,45,3,2,2,1,19,2,5,2,1,1,2.0,1.0,3.76,754.63,1.184,1,1.0,10
2,2,46,3,2,3,25,8,3,4,3,1,1,2.0,1.0,3.94,758.57,4.502,1,1.0,10
2,2,47,3,1,1,3,18,2,5,2,1,1,1.0,2.0,2.22,760.79,2.575,0,1.0,10
2,2,48,3,1,2,12,2,3,5,3,1,1,1.0,2.0,1.85,762.64,1.958,0,1.0,10
2,2,49,3,1,3,52,36,4,3,3,2,1,2.0,1.0,4.15,766.79,4.717,1,2.0,10
2,2,50,3,1,4,51,27,3,2,2,2,1,2.0,1.0,3.93,770.72,1.342,1,1.0,10
2,2,51,3,2,1,24,53,3,4,4,2,1,1.0,2.0,0.9,771.62,1.934,0,1.0,10
2,2,52,3,1,1,50,29,5,2,2,2,1,2.0,1.0,3.85,775.47,3.582,1,1.0,10
2,2,53,3,1,2,49,40,3,2,2,2,1,2.0,1.0,4.12,779.59,2.1,1,1.0,10
2,2,54,3,2,1,38,39,3,2,3,1,1,2.0,1.0,3.99,783.58,3.173,1,2.0,10
2,2,55,3,2,2,26,43,2,3,2,1,1,2.0,1.0,4.04,787.62,3.404,1,1.0,10
2,2,56,3,1,1,52,5,3,4,4,2,1,2.0,1.0,4.11,791.73,5.073,1,2.0,10
2,2,57,3,1,2,8,42,5,3,3,2,1,2.0,1.0,3.75,795.48,4.748,1,1.0,10
2,2,58,3,1,3,38,13,2,5,5,2,1,2.0,1.0,3.92,799.4,2.627,1,1.0,10
2,2,59,3,1,4,20,21,5,4,4,2,1,2.0,1.0,3.92,803.32,3.128,1,1.0,10
2,2,60,3,1,5,15,25,5,3,3,2,1,2.0,1.0,3.88,807.2,1.576,1,1.0,10
2,2,61,3,2,1,54,38,3,5,3,1,1,2.0,1.0,3.98,811.18,4.191,1,2.0,10
2,2,62,3,2,2,23,22,2,3,2,1,1,2.0,1.0,4.18,815.36,5.629,1,1.0,10
2,2,63,3,2,3,20,48,5,2,5,1,1,2.0,1.0,4.0,819.36,1.961,1,1.0,10
2,2,64,3,2,4,35,42,2,5,2,1,1,2.0,1.0,4.14,823.5,3.744,1,1.0,10
2,2,65,3,1,1,53,14,2,5,5,2,1,2.0,1.0,3.92,827.42,2.072,1,2.0,10
2,2,66,3,1,2,39,53,2,4,4,2,1,2.0,1.0,4.0,831.42,3.651,1,1.0,10
2,2,67,3,1,3,48,23,2,4,4,2,1,2.0,1.0,3.91,835.33,3.014,1,1.0,10
2,2,68,3,1,4,48,46,5,4,4,2,1,2.0,1.0,4.07,839.4,2.747,1,1.0,10
2,2,69,3,1,5,31,29,4,3,3,2,1,2.0,1.0,3.97,843.37,1.707,1,1.0,10
2,2,70,3,1,6,7,50,2,4,4,2,1,2.0,1.0,4.06,847.43,1.54,1,1.0,10
2,2,71,3,2,1,5,52,2,3,2,1,1,2.0,1.0,4.08,851.51,2.236,1,2.0,10
2,2,72,3,2,2,52,44,4,5,4,1,1,2.0,1.0,3.99,855.5,3.144,1,1.0,10
2,2,73,3,2,3,52,17,5,3,5,1,1,2.0,1.0,4.1,859.6,1.615,1,1.0,10
2,2,74,3,2,4,6,47,4,3,4,1,1,2.0,1.0,4.27,863.87,2.572,1,1.0,10
2,2,75,3,2,5,37,11,2,3,3,2,1,1.0,2.0,2.25,866.12,1.499,0,2.0,10
2,2,76,3,1,1,3,31,3,5,5,2,1,2.0,1.0,4.0,870.12,3.372,1,1.0,10
2,2,77,3,1,2,42,28,3,5,5,2,1,2.0,1.0,4.11,874.23,2.771,1,1.0,10
2,2,78,3,1,3,1,14,5,2,2,2,1,2.0,1.0,4.01,878.24,2.433,1,1.0,10
2,2,79,3,2,1,20,39,4,2,4,1,1,2.0,1.0,3.87,882.11,3.094,1,2.0,10
2,2,80,3,2,2,1,42,2,4,2,1,1,2.0,1.0,4.06,886.17,1.775,1,1.0,10
2,2,81,3,2,3,32,37,2,3,2,1,1,2.0,1.0,4.0,890.17,3.27,1,1.0,10
2,2,82,3,2,4,12,36,3,5,3,1,1,2.0,1.0,3.97,894.14,1.034,1,1.0,10
2,2,83,3,2,5,35,30,2,4,2,1,1,2.0,1.0,4.15,898.29,1.541,1,1.0,10
2,2,84,3,2,6,27,2,4,2,4,1,1,2.0,1.0,4.22,902.51,1.301,1,1.0,10
2,2,1,4,1,1,12,37,2,5,2,1,1,1.0,2.0,1.75,904.26,1.625,0,,10
2,2,2,4,1,2,36,49,2,3,2,1,1,1.0,2.0,2.05,906.31,3.806,0,1.0,10
2,2,3,4,1,3,42,47,4,2,2,2,1,2.0,1.0,3.9,910.21,2.211,1,2.0,10
2,2,4,4,1,4,22,6,3,2,2,2,1,2.0,1.0,4.08,914.29,2.465,1,1.0,10
2,2,5,4,2,1,53,23,2,5,2,1,1,2.0,1.0,3.72,918.01,1.515,1,2.0,10
2,2,6,4,1,1,44,50,2,4,4,2,1,2.0,1.0,4.12,922.13,2.508,1,2.0,10
2,2,7,4,1,2,22,37,5,2,2,2,1,2.0,1.0,4.03,926.16,1.605,1,1.0,10
2,2,8,4,1,3,36,51,2,5,5,2,1,2.0,1.0,4.03,930.19,2.715,1,1.0,10
2,2,9,4,1,4,48,50,2,5,5,2,1,2.0,1.0,4.14,934.33,0.907,1,1.0,10
2,2,10,4,1,5,36,30,4,3,3,2,1,2.0,1.0,3.97,938.3,2.357,1,1.0,10
2,2,11,4,1,6,17,16,2,5,5,2,1,2.0,1.0,3.98,942.28,1.42,1,1.0,10
2,2,12,4,2,1,42,29,4,3,3,2,1,1.0,2.0,1.4,943.68,3.505,0,1.0,10
2,2,13,4,2,2,20,34,3,5,3,1,1,2.0,1.0,3.8,947.48,2.474,1,2.0,10
2,2,14,4,2,3,45,11,3,4,3,1,1,2.0,1.0,3.92,951.4,2.813,1,1.0,10
2,2,15,4,2,4,9,2,2,3,3,2,1,1.0,2.0,2.13,953.53,1.977,0,2.0,10
2,2,16,4,2,5,32,45,4,3,4,1,1,2.0,1.0,3.94,957.47,1.6,1,2.0,10
2,2,17,4,2,6,10,3,5,2,5,1,1,2.0,1.0,3.84,961.31,2.237,1,1.0,10
2,2,18,4,1,1,38,23,5,4,4,2,1,2.0,1.0,4.13,965.44,3.417,1,2.0,10
2,2,19,4,2,1,7,5,3,2,3,1,1,2.0,1.0,3.92,969.36,1.405,1,2.0,10
2,2,20,4,2,2,46,2,2,4,2,1,1,2.0,1.0,4.0,973.36,3.34,1,1.0,10
2,2,21,4,2,3,14,9,3,2,3,1,1,2.0,1.0,4.0,977.36,1.643,1,1.0,10
2,2,22,4,2,4,34,3,3,5,3,1,1,2.0,1.0,3.97,981.33,1.735,1,1.0,10
2,2,23,4,1,1,20,7,3,2,3,1,1,1.0,2.0,2.19,983.52,3.494,0,1.0,10
2,2,24,4,1,2,12,43,3,5,5,2,1,2.0,1.0,3.97,987.49,4.144,1,2.0,10
2,2,25,4,1,3,21,7,5,4,4,2,1,2.0,1.0,3.8,991.29,4.456,1,1.0,10
2,2,26,4,2,1,7,48,4,2,2,2,1,1.0,2.0,1.52,992.81,3.74,0,1.0,10
2,2,27,4,2,2,10,21,3,5,3,1,1,2.0,1.0,4.03,996.84,1.524,1,2.0,10
2,2,29,4,1,1,9,35,2,4,2,1,1,1.0,2.0,1.41,998.25,1.082,0,,10
2,2,30,4,1,2,16,45,4,3,3,2,1,2.0,1.0,3.96,1002.21,3.276,1,2.0,10
2,2,31,4,1,3,39,11,3,4,4,2,1,2.0,1.0,3.89,1006.1,3.246,1,1.0,10
2,2,32,4,1,4,35,11,2,4,4,2,1,2.0,1.0,3.86,1009.96,1.338,1,1.0,10
2,2,33,4,1,5,36,18,5,3,3,2,1,2.0,1.0,3.88,1013.84,2.514,1,1.0,10
2,2,34,4,2,1,52,13,3,2,3,1,1,2.0,1.0,3.95,1017.79,1.347,1,2.0,10
2,2,35,4,2,2,43,45,5,3,5,1,1,2.0,1.0,4.02,1021.81,2.57,1,1.0,10
2,2,36,4,1,1,26,2,3,4,4,2,1,2.0,1.0,3.99,1025.8,2.352,1,2.0,10
2,2,38,4,2,1,54,4,5,4,5,1,1,2.0,1.0,4.13,1029.93,1.953,1,,10
2,2,39,4,2,2,11,20,5,4,5,1,1,2.0,1.0,3.97,1033.9,1.448,1,1.0,10
2,2,40,4,2,3,41,33,5,3,5,1,1,2.0,1.0,3.82,1037.72,3.444,1,1.0,10
2,2,41,4,2,4,15,50,5,2,5,1,1,2.0,1.0,4.0,1041.72,5.0,1,1.0,10
2,2,42,4,2,5,45,40,5,3,5,1,1,2.0,1.0,4.01,1045.73,1.741,1,1.0,10
2,2,43,4,1,1,14,52,4,5,5,2,1,2.0,1.0,4.04,1049.77,4.685,1,2.0,10
2,2,44,4,1,2,33,54,4,2,2,2,1,2.0,1.0,4.06,1053.83,1.463,1,1.0,10
2,2,45,4,1,3,26,28,5,2,2,2,1,2.0,1.0,4.15,1057.98,0.97,1,1.0,10
2,2,46,4,1,4,38,22,5,3,3,2,1,2.0,1.0,3.94,1061.92,2.24,1,1.0,10
2,2,47,4,2,1,31,19,4,2,4,1,1,2.0,1.0,4.03,1065.95,1.492,1,2.0,10
2,2,48,4,2,2,44,25,4,5,4,1,1,2.0,1.0,4.0,1069.95,3.126,1,1.0,10
2,2,49,4,2,3,17,43,3,4,3,1,1,2.0,1.0,3.93,1073.88,3.631,1,1.0,10
2,2,50,4,2,4,41,14,4,5,4,1,1,2.0,1.0,4.25,1078.13,5.627,1,1.0,10
2,2,51,4,2,5,52,35,4,5,4,1,1,2.0,1.0,3.97,1082.1,2.512,1,1.0,10
2,2,52,4,1,1,31,8,5,3,5,1,1,1.0,2.0,1.34,1083.44,2.352,0,1.0,10
2,2,53,4,2,1,51,27,2,3,2,1,1,2.0,1.0,4.21,1087.65,2.175,1,1.0,10
2,2,54,4,2,2,9,29,5,4,5,1,1,2.0,1.0,4.04,1091.69,1.678,1,1.0,10
2,2,55,4,2,3,11,36,4,5,4,1,1,2.0,1.0,3.87,1095.56,2.065,1,1.0,10
2,2,56,4,2,4,21,23,2,3,2,1,1,2.0,1.0,4.07,1099.63,2.412,1,1.0,10
2,2,57,4,2,5,27,7,3,4,3,1,1,2.0,1.0,4.15,1103.78,1.537,1,1.0,10
2,2,58,4,2,6,34,27,5,2,2,2,1,1.0,2.0,1.58,1105.36,1.649,0,2.0,10
2,2,59,4,1,1,1,2,4,2,4,1,1,1.0,2.0,2.06,1107.42,1.14,0,2.0,10
2,2,60,4,1,2,31,15,2,3,2,1,1,1.0,2.0,1.93,1109.35,2.411,0,1.0,10
2,2,61,4,1,3,4,43,3,2,2,2,1,2.0,1.0,3.86,1113.21,2.217,1,2.0,10
2,2,62,4,2,1,26,10,2,4,2,1,1,2.0,1.0,4.14,1117.35,3.79,1,2.0,10
2,2,63,4,2,2,51,19,2,5,2,1,1,2.0,1.0,4.0,1121.35,1.243,1,1.0,10
2,2,64,4,2,3,25,38,3,5,3,1,1,2.0,1.0,4.06,1125.41,5.047,1,1.0,10
2,2,66,4,1,1,1,20,5,3,3,2,1,2.0,1.0,3.92,1129.33,3.404,1,,10
2,2,67,4,1,2,3,1,5,4,4,2,1,2.0,1.0,3.92,1133.25,1.082,1,1.0,10
2,2,68,4,1,3,33,32,3,4,4,2,1,2.0,1.0,4.04,1137.29,1.947,1,1.0,10
2,2,69,4,1,4,44,7,2,5,5,2,1,2.0,1.0,4.01,1141.3,2.835,1,1.0,10
2,2,70,4,1,5,7,18,5,2,2,2,1,2.0,1.0,4.22,1145.52,2.623,1,1.0,10
2,2,71,4,1,6,22,33,2,3,3,2,1,2.0,1.0,3.97,1149.49,2.459,1,1.0,10
2,2,73,4,1,1,12,4,5,2,5,1,1,1.0,2.0,3.04,1152.53,1.175,0,,10
2,2,74,4,1,2,7,18,4,2,4,1,1,1.0,2.0,2.71,1155.24,2.982,0,1.0,10
2,2,75,4,1,3,43,40,4,3,3,2,1,2.0,1.0,3.77,1159.01,3.3,1,2.0,10
2,2,76,4,1,4,28,39,3,4,4,2,1,2.0,1.0,3.8,1162.81,2.621,1,1.0,10
2,2,77,4,1,5,50,49,5,4,4,2,1,2.0,1.0,3.93,1166.74,1.282,1,1.0,10
2,2,78,4,2,1,13,45,2,3,2,1,1,2.0,1.0,3.98,1170.72,2.716,1,2.0,10
2,2,79,4,2,2,7,28,3,5,5,2,1,1.0,2.0,2.0,1172.72,2.093,0,2.0,10
2,2,80,4,1,1,39,50,4,5,5,2,1,2.0,1.0,4.1,1176.82,1.558,1,1.0,10
2,2,81,4,1,2,16,9,4,2,2,2,1,2.0,1.0,3.91,1180.73,2.117,1,1.0,10
2,2,82,4,2,1,39,1,2,4,2,1,1,2.0,1.0,3.91,1184.64,2.774,1,2.0,10
2,2,83,4,2,2,53,52,4,5,4,1,1,2.0,1.0,3.98,1188.62,4.164,1,1.0,10
2,2,84,4,2,3,21,36,4,3,4,1,1,2.0,1.0,4.0,1192.62,2.171,1,1.0,10
3,4,1,1,1,1,11,41,3,5,3,1,1,2.0,2.0,3.8,3.8,1.935,0,,100
3,4,2,1,1,2,19,51,5,3,5,1,1,2.0,2.0,3.22,7.02,4.885,0,1.0,100
3,4,3,1,1,3,4,19,2,4,4,2,1,1.0,1.0,2.01,9.03,5.447,1,2.0,100
3,4,4,1,1,4,8,53,2,5,5,2,1,1.0,1.0,2.03,11.06,13.101,1,1.0,100
3,4,5,1,1,5,52,27,5,2,2,2,1,1.0,1.0,1.86,12.92,5.013,1,1.0,100
3,4,6,1,2,1,32,45,2,3,3,2,1,2.0,2.0,4.56,17.48,7.964,0,1.0,100
3,4,7,1,2,2,20,34,5,3,5,1,1,1.0,1.0,2.14,19.62,7.534,1,2.0,100
3,4,8,1,1,1,32,49,2,4,2,1,1,2.0,2.0,3.98,23.6,3.127,0,1.0,100
3,4,9,1,1,2,54,30,3,4,4,2,1,1.0,1.0,2.04,25.64,4.438,1,2.0,100
3,4,10,1,1,3,25,42,2,5,2,1,1,2.0,2.0,4.08,29.72,5.269,0,2.0,100
3,4,11,1,1,4,39,26,2,4,4,2,1,1.0,1.0,1.98,31.7,6.467,1,2.0,100
3,4,12,1,2,1,33,35,3,5,3,1,1,1.0,1.0,2.09,33.79,10.542,1,2.0,100
3,4,13,1,2,2,8,21,2,5,2,1,1,1.0,1.0,1.93,35.72,2.295,1,1.0,100
3,4,14,1,2,3,9,30,2,5,2,1,1,1.0,1.0,2.26,37.98,5.175,1,1.0,100
3,4,15,1,2,4,47,26,2,3,3,2,1,2.0,2.0,3.94,41.92,9.641,0,2.0,100
3,4,17,1,1,2,12,45,3,4,3,1,1,2.0,2.0,4.5,50.47,1.533,0,1.0,100
3,4,18,1,2,1,18,32,4,5,4,1,1,1.0,1.0,2.01,52.48,4.767,1,1.0,100
3,4,19,1,1,1,9,18,3,4,3,1,1,2.0,2.0,3.95,56.43,1.508,0,1.0,100
3,4,20,1,1,2,14,29,2,4,2,1,1,2.0,2.0,3.61,60.04,4.246,0,1.0,100
3,4,21,1,1,3,40,49,3,4,3,1,1,2.0,2.0,4.14,64.18,3.239,0,1.0,100
3,4,22,1,1,4,5,26,4,5,4,1,1,2.0,2.0,3.37,67.55,2.415,0,1.0,100
3,4,23,1,1,5,26,11,4,2,4,1,1,2.0,2.0,4.34,71.89,4.953,0,1.0,100
3,4,24,1,1,6,1,19,3,2,2,2,1,1.0,1.0,2.19,74.08,2.795,1,2.0,100
3,4,25,1,2,1,39,16,2,3,2,1,1,1.0,1.0,1.92,76.0,2.191,1,2.0,100
3,4,26,1,2,2,34,11,5,4,5,1,1,1.0,1.0,2.1,78.1,5.109,1,1.0,100
3,4,27,1,2,3,20,51,4,2,4,1,1,1.0,1.0,2.15,80.25,1.965,1,1.0,100
3,4,28,1,2,4,19,35,5,2,5,1,1,1.0,1.0,1.81,82.06,3.176,1,1.0,100
3,4,29,1,2,5,4,45,5,2,5,1,1,1.0,1.0,1.83,83.89,2.16,1,1.0,100
3,4,30,1,2,6,7,3,2,3,3,2,1,2.0,2.0,4.27,88.16,3.599,0,2.0,100
3,4,31,1,1,1,48,15,4,3,3,2,1,1.0,1.0,1.95,90.11,4.949,1,1.0,100
3,4,32,1,2,1,45,54,3,5,3,1,1,1.0,1.0,2.08,92.19,1.374,1,2.0,100
3,4,33,1,2,2,42,30,5,4,4,2,1,2.0,2.0,4.38,96.57,3.884,0,2.0,100
3,4,34,1,2,3,29,26,4,2,4,1,1,1.0,1.0,2.08,98.65,8.87,1,2.0,100
3,4,35,1,2,4,27,13,3,2,3,1,1,1.0,1.0,2.15,100.8,5.828,1,1.0,100
3,4,36,1,2,5,14,19,2,5,5,2,1,2.0,2.0,4.32,105.12,2.893,0,2.0,100
3,4,37,1,1,1,8,16,4,2,4,1,1,2.0,2.0,4.56,109.68,1.87,0,2.0,100
3,4,38,1,1,2,5,14,2,4,2,1,1,2.0,2.0,3.43,113.11,1.575,0,1.0,100
3,4,39,1,1,3,51,42,4,3,4,1,1,2.0,2.0,3.99,117.1,2.054,0,1.0,100
3,4,40,1,2,1,15,29,3,5,3,1,1,1.0,1.0,1.98,119.08,5.344,1,1.0,100
3,4,41,1,2,2,48,26,4,3,4,1,1,1.0,1.0,1.81,120.89,5.412,1,1.0,100
3,4,42,1,2,3,46,5,3,5,3,1,1,1.0,1.0,2.03,122.92,2.709,1,1.0,100
3,4,43,1,1,1,15,1,2,3,2,1,1,2.0,2.0,3.5,126.42,4.215,0,1.0,100
3,4,44,1,1,2,27,25,5,3,3,2,1,1.0,1.0,2.17,128.59,3.026,1,2.0,100
3,4,45,1,2,1,24,42,5,2,2,2,1,2.0,2.0,3.62,132.21,11.791,0,1.0,100
3,4,46,1,2,2,6,53,4,2,4,1,1,1.0,1.0,2.06,134.27,1.679,1,2.0,100
3,4,47,1,2,3,11,1,3,5,3,1,1,1.0,1.0,2.03,136.3,2.526,1,1.0,100
3,4,48,1,2,4,32,46,2,5,2,1,1,1.0,1.0,1.89,138.19,8.544,1,1.0,100
3,4,49,1,2,5,46,11,4,5,4,1,1,1.0,1.0,1.74,139.93,4.288,1,1.0,100
3,4,50,1,2,6,42,33,5,3,3,2,1,2.0,2.0,3.97,143.9,3.489,0,2.0,100
3,4,51,1,1,1,46,23,3,2,2,2,1,1.0,1.0,1.88,145.78,1.82,1,1.0,100
3,4,52,1,1,2,28,20,5,2,5,1,1,2.0,2.0,4.29,150.07,5.888,0,2.0,100
3,4,53,1,1,3,52,49,4,3,3,2,1,1.0,1.0,2.06,152.13,8.733,1,2.0,100
3,4,54,1,1,4,16,41,2,3,2,1,1,2.0,2.0,4.8,156.93,4.863,0,2.0,100
3,4,55,1,2,1,28,17,5,3,3,2,1,2.0,2.0,4.28,161.21,3.933,0,2.0,100
3,4,56,1,2,2,15,36,3,2,3,1,1,1.0,1.0,1.92,163.13,7.71,1,2.0,100
3,4,57,1,2,3,43,48,4,3,3,2,1,2.0,2.0,4.18,167.31,2.137,0,2.0,100
3,4,58,1,2,4,44,25,4,3,3,2,1,2.0,2.0,3.52,170.83,1.224,0,1.0,100
3,4,59,1,1,1,20,16,4,2,2,2,1,1.0,1.0,2.0,172.83,5.869,1,1.0,100
3,4,60,1,2,1,44,31,4,3,4,1,1,1.0,1.0,1.99,174.82,2.302,1,2.0,100
3,4,61,1,2,2,9,22,3,2,2,2,1,2.0,2.0,4.0,178.82,1.572,0,2.0,100
3,4,62,1,2,3,39,9,3,2,2,2,1,2.0,2.0,3.85,182.67,1.544,0,1.0,100
3,4,63,1,2,4,2,28,4,5,4,1,1,1.0,1.0,2.13,184.8,4.392,1,2.0,100
3,4,64,1,2,5,34,49,4,2,2,2,1,2.0,2.0,3.12,187.92,2.375,0,2.0,100
3,4,65,1,1,1,11,43,2,5,2,1,1,2.0,2.0,4.2,192.12,2.279,0,2.0,100
3,4,66,1,1,2,17,33,2,4,2,1,1,2.0,2.0,4.42,196.54,3.557,0,1.0,100
3,4,67,1,1,3,45,43,2,3,2,1,1,2.0,2.0,4.34,200.88,0.645,0,1.0,100
3,4,68,1,2,1,52,4,5,2,5,1,1,1.0,1.0,2.07,202.95,6.533,1,1.0,100
3,4,69,1,2,2,34,14,4,5,4,1,1,1.0,1.0,2.0,204.95,2.319,1,1.0,100
3,4,70,1,1,1,2,16,5,4,5,1,1,2.0,2.0,4.32,209.27,4.485,0,1.0,100
3,4,71,1,1,2,7,5,5,4,5,1,1,2.0,2.0,4.27,213.54,4.054,0,1.0,100
3,4,72,1,1,3,2,52,4,5,4,1,1,2.0,2.0,3.88,217.42,2.957,0,1.0,100
3,4,73,1,1,4,23,46,5,4,5,1,1,2.0,2.0,3.82,221.24,5.405,0,1.0,100
3,4,74,1,1,5,9,50,5,3,5,1,1,2.0,2.0,3.86,225.1,0.894,0,1.0,100
3,4,75,1,2,1,13,29,5,4,5,1,1,1.0,1.0,1.83,226.93,2.884,1,1.0,100
3,4,76,1,1,1,54,19,3,4,4,2,1,1.0,1.0,1.97,228.9,5.208,1,2.0,100
3,4,77,1,1,2,28,37,3,4,3,1,1,2.0,2.0,4.06,232.96,5.048,0,2.0,100
3,4,78,1,1,3,12,32,5,3,3,2,1,1.0,1.0,2.04,235.0,7.301,1,2.0,100
3,4,79,1,1,4,51,37,5,2,2,2,1,1.0,1.0,2.17,237.17,10.143,1,1.0,100
3,4,80,1,1,5,36,48,3,2,3,1,1,2.0,2.0,3.83,241.0,2.445,0,2.0,100
3,4,81,1,1,6,47,31,5,4,4,2,1,1.0,1.0,2.07,243.07,3.679,1,2.0,100
3,4,82,1,2,1,47,54,3,4,3,1,1,1.0,1.0,2.09,245.16,4.341,1,2.0,100
3,4,83,1,2,2,34,41,4,5,5,2,1,2.0,2.0,4.44,249.6,5.806,0,2.0,100
3,4,84,1,2,3,36,13,2,4,4,2,1,2.0,2.0,3.53,253.13,4.591,0,1.0,100
3,4,1,2,1,1,35,27,3,2,3,1,1,2.0,2.0,4.1,257.23,6.101,0,,100
3,4,2,2,1,2,12,3,4,2,4,1,1,2.0,2.0,4.11,261.34,1.5,0,1.0,100
3,4,3,2,2,1,17,27,2,5,2,1,1,1.0,1.0,1.88,263.22,2.196,1,1.0,100
3,4,4,2,2,2,10,20,3,4,3,1,1,1.0,1.0,1.91,265.13,4.357,1,1.0,100
3,4,5,2,1,1,19,31,5,4,5,1,1,2.0,2.0,4.51,269.64,4.119,0,1.0,100
3,4,6,2,1,2,16,9,2,5,2,1,1,2.0,2.0,3.94,273.58,3.39,0,1.0,100
3,4,7,2,1,3,12,39,3,2,3,1,1,2.0,2.0,4.18,277.76,1.608,0,1.0,100
3,4,8,2,1,4,32,35,4,3,4,1,1,2.0,2.0,4.04,281.8,4.147,0,1.0,100
3,4,9,2,2,1,51,30,4,2,4,1,1,1.0,1.0,1.93,283.73,2.304,1,1.0,100
3,4,10,2,2,2,6,2,4,3,3,2,1,2.0,2.0,3.74,287.47,2.254,0,2.0,100
3,4,11,2,2,3,52,26,4,3,4,1,1,1.0,1.0,2.05,289.52,2.951,1,2.0,100
3,4,12,2,2,4,17,2,4,2,2,2,1,2.0,2.0,3.55,293.07,3.75,0,2.0,100
3,4,13,2,1,1,48,9,2,5,5,2,1,1.0,1.0,2.09,295.16,2.477,1,1.0,100
3,4,14,2,1,2,39,48,2,3,2,1,1,2.0,2.0,4.27,299.43,6.725,0,2.0,100
3,4,15,2,1,3,11,45,2,4,2,1,1,2.0,2.0,3.61,303.04,1.718,0,1.0,100
3,4,16,2,2,1,8,34,3,2,3,1,1,1.0,1.0,1.97,305.01,2.165,1,1.0,100
3,4,17,2,2,2,27,29,5,2,5,1,1,1.0,1.0,1.86,306.87,9.973,1,1.0,100
3,4,18,2,2,3,37,11,5,3,3,2,1,2.0,2.0,2.96,309.83,1.832,0,2.0,100
3,4,19,2,2,4,18,3,5,3,3,2,1,2.0,2.0,4.46,314.29,3.199,0,1.0,100
3,4,20,2,2,5,5,1,5,4,5,1,1,1.0,1.0,1.94,316.23,2.015,1,2.0,100
3,4,21,2,1,1,38,8,4,3,3,2,1,1.0,1.0,2.04,318.27,2.423,1,2.0,100
3,4,22,2,1,2,49,7,4,5,5,2,1,1.0,1.0,2.03,320.3,2.766,1,1.0,100
3,4,23,2,1,3,4,31,3,4,3,1,1,2.0,2.0,4.01,324.31,2.382,0,2.0,100
3,4,24,2,1,4,28,11,2,4,2,1,1,2.0,2.0,3.53,327.84,3.838,0,1.0,100
3,4,25,2,1,5,49,54,4,2,4,1,1,2.0,2.0,3.55,331.39,3.134,0,1.0,100
3,4,26,2,1,6,15,46,2,5,2,1,1,2.0,2.0,3.82,335.21,2.631,0,1.0,100
3,4,27,2,2,1,44,27,2,3,3,2,1,2.0,2.0,3.44,338.65,4.033,0,2.0,100
3,4,28,2,2,2,24,41,2,3,3,2,1,2.0,2.0,3.5,342.15,2.037,0,1.0,100
3,4,29,2,2,3,25,17,4,2,2,2,1,2.0,2.0,4.69,346.84,6.07,0,1.0,100
3,4,30,2,1,1,8,20,2,4,2,1,1,2.0,2.0,4.03,350.87,1.44,0,2.0,100
3,4,31,2,1,2,3,46,5,3,3,2,1,1.0,1.0,1.86,352.73,3.685,1,2.0,100
3,4,32,2,1,3,22,36,4,3,3,2,1,1.0,1.0,2.0,354.73,3.047,1,1.0,100
3,4,33,2,1,4,15,17,5,3,5,1,1,2.0,2.0,3.47,358.2,3.151,0,2.0,100
3,4,34,2,1,5,50,34,3,5,5,2,1,1.0,1.0,1.84,360.04,4.007,1,2.0,100
3,4,35,2,2,1,46,23,2,4,4,2,1,2.0,2.0,3.88,363.92,1.111,0,1.0,100
3,4,36,2,1,1,41,48,4,5,4,1,1,2.0,2.0,4.45,368.37,4.976,0,2.0,100
3,4,37,2,2,1,50,45,3,4,4,2,1,2.0,2.0,4.06,372.43,5.15,0,2.0,100
3,4,38,2,2,2,50,8,2,3,3,2,1,2.0,2.0,4.31,376.74,2.703,0,1.0,100
3,4,39,2,2,3,37,26,2,4,4,2,1,2.0,2.0,3.45,380.19,2.037,0,1.0,100
3,4,40,2,2,4,1,38,3,4,3,1,1,1.0,1.0,1.95,382.14,5.261,1,2.0,100
3,4,41,2,2,5,53,14,3,2,3,1,1,1.0,1.0,1.97,384.11,11.811,1,1.0,100
3,4,42,2,2,6,20,54,4,5,4,1,1,1.0,1.0,1.86,385.97,3.386,1,1.0,100
3,4,44,2,2,1,44,21,2,5,2,1,1,1.0,1.0,1.84,387.81,8.22,1,,100
3,4,45,2,2,2,28,20,4,3,4,1,1,1.0,1.0,2.11,389.92,1.983,1,1.0,100
3,4,46,2,2,3,42,38,4,2,2,2,1,2.0,2.0,4.01,393.93,4.24,0,2.0,100
3,4,47,2,1,1,12,42,5,3,5,1,1,2.0,2.0,3.7,397.63,2.574,0,2.0,100
3,4,48,2,1,2,44,38,3,2,2,2,1,1.0,1.0,2.09,399.72,6.781,1,2.0,100
3,4,49,2,1,3,26,17,4,3,4,1,1,2.0,2.0,4.11,403.83,4.676,0,2.0,100
3,4,50,2,2,1,32,6,2,4,2,1,1,1.0,1.0,1.88,405.71,2.799,1,1.0,100
3,4,51,2,2,2,39,50,3,5,5,2,1,2.0,2.0,4.63,410.34,3.174,0,2.0,100
3,4,52,2,2,3,44,51,4,5,5,2,1,2.0,2.0,4.14,414.48,3.062,0,1.0,100
3,4,53,2,2,4,18,42,3,5,5,2,1,2.0,2.0,4.7,419.18,3.447,0,1.0,100
3,4,54,2,1,1,17,4,5,4,4,2,1,1.0,1.0,2.13,421.31,3.071,1,1.0,100
3,4,55,2,1,2,23,12,2,3,2,1,1,2.0,2.0,3.68,424.99,1.455,0,2.0,100
3,4,56,2,1,3,1,51,3,4,4,2,1,1.0,1.0,1.85,426.84,4.617,1,2.0,100
3,4,58,2,2,1,10,25,4,5,4,1,1,1.0,1.0,1.99,428.83,1.856,1,,100
3,4,59,2,2,2,47,17,5,2,2,2,1,2.0,2.0,3.84,432.67,3.856,0,2.0,100
3,4,60,2,1,1,42,40,3,2,3,1,1,2.0,2.0,3.6,436.27,3.295,0,2.0,100
3,4,61,2,1,2,48,27,2,3,2,1,1,2.0,2.0,4.23,440.5,5.238,0,1.0,100
3,4,62,2,2,1,13,17,2,5,2,1,1,1.0,1.0,2.18,442.68,5.94,1,1.0,100
3,4,63,2,2,2,37,32,4,5,4,1,1,1.0,1.0,1.94,444.62,2.807,1,1.0,100
3,4,64,2,2,3,8,30,2,4,4,2,1,2.0,2.0,3.6,448.22,3.712,0,2.0,100
3,4,65,2,2,4,15,21,4,5,4,1,1,1.0,1.0,1.97,450.19,2.67,1,2.0,100
3,4,66,2,2,5,20,32,3,4,4,2,1,2.0,2.0,4.31,454.5,5.637,0,2.0,100
3,4,67,2,2,6,3,29,4,2,4,1,1,1.0,1.0,1.9,456.4,2.879,1,2.0,100
3,4,68,2,1,1,7,8,3,2,2,2,1,1.0,1.0,1.86,458.26,2.221,1,2.0,100
3,4,69,2,1,2,34,26,3,4,4,2,1,1.0,1.0,1.99,460.25,1.983,1,1.0,100
3,4,70,2,1,3,26,16,5,2,5,1,1,2.0,2.0,3.97,464.22,2.294,0,2.0,100
3,4,71,2,1,4,42,2,3,5,3,1,1,2.0,2.0,4.23,468.45,2.553,0,1.0,100
3,4,72,2,1,5,29,36,5,3,5,1,1,2.0,2.0,3.72,472.17,8.031,0,1.0,100
3,4,73,2,1,6,31,7,2,5,2,1,1,2.0,2.0,3.93,476.1,4.701,0,1.0,100
3,4,74,2,2,1,17,26,5,2,2,2,1,2.0,2.0,3.8,479.9,2.198,0,2.0,100
3,4,75,2,1,1,17,42,5,4,4,2,1,1.0,1.0,1.99,481.89,8.256,1,1.0,100
3,4,76,2,1,2,25,44,5,3,3,2,1,1.0,1.0,2.18,484.07,5.743,1,1.0,100
3,4,77,2,1,3,23,35,5,4,5,1,1,2.0,2.0,3.71,487.78,2.478,0,2.0,100
3,4,79,2,1,5,6,22,5,2,5,1,1,2.0,2.0,3.37,491.15,4.387,0,,100
3,4,80,2,2,1,50,37,5,4,5,1,1,1.0,1.0,2.06,493.21,3.431,1,1.0,100
3,4,81,2,2,2,53,18,3,5,5,2,1,2.0,2.0,3.57,496.78,7.878,0,2.0,100
3,4,82,2,2,3,52,1,2,3,3,2,1,2.0,2.0,4.02,500.8,12.039,0,1.0,100
3,4,83,2,2,4,53,45,5,4,4,2,1,2.0,2.0,3.7,504.5,5.784,0,1.0,100
3,4,84,2,2,5,10,1,5,2,2,2,1,2.0,2.0,4.25,508.75,2.848,0,1.0,100
3,4,1,3,2,1,37,4,4,5,4,1,1,1.0,1.0,2.07,510.82,6.928,1,,100
3,4,2,3,1,1,22,6,5,3,3,2,1,1.0,1.0,1.98,512.8,3.99,1,2.0,100
3,4,3,3,1,2,6,25,2,3,3,2,1,1.0,1.0,1.76,514.56,8.127,1,1.0,100
3,4,4,3,1,3,44,37,4,2,2,2,1,1.0,1.0,2.02,516.58,4.104,1,1.0,100
3,4,5,3,1,4,37,27,4,5,5,2,1,1.0,1.0,2.19,518.77,2.544,1,1.0,100
3,4,6,3,1,5,38,10,2,5,5,2,1,1.0,1.0,2.12,520.89,1.647,1,1.0,100
3,4,7,3,2,1,14,41,3,5,5,2,1,2.0,2.0,3.26,524.15,13.49,0,1.0,100
3,4,8,3,2,2,16,28,5,2,2,2,1,2.0,2.0,3.96,528.11,3.172,0,1.0,100
3,4,9,3,2,3,31,9,4,3,3,2,1,2.0,2.0,3.68,531.79,2.511,0,1.0,100
3,4,10,3,1,1,1,8,2,4,4,2,1,1.0,1.0,1.88,533.67,1.488,1,1.0,100
3,4,12,3,2,1,15,24,5,2,5,1,1,1.0,1.0,2.03,539.12,4.584,1,1.0,100
3,4,13,3,2,2,29,24,4,5,4,1,1,1.0,1.0,1.95,541.07,1.875,1,1.0,100
3,4,14,3,2,3,22,30,4,2,4,1,1,1.0,1.0,2.01,543.08,2.151,1,1.0,100
3,4,15,3,2,4,8,53,3,2,3,1,1,1.0,1.0,1.96,545.04,5.182,1,1.0,100
3,4,16,3,2,5,7,45,3,2,3,1,1,1.0,1.0,1.95,546.99,4.255,1,1.0,100
3,4,17,3,2,6,6,10,5,4,5,1,1,1.0,1.0,2.04,549.03,9.221,1,1.0,100
3,4,18,3,1,1,30,49,3,5,5,2,1,1.0,1.0,2.09,551.12,8.158,1,2.0,100
3,4,19,3,2,1,22,33,3,4,4,2,1,2.0,2.0,5.0,556.12,6.159,0,1.0,100
3,4,20,3,2,2,50,18,3,4,3,1,1,1.0,1.0,1.84,557.96,2.761,1,2.0,100
3,4,21,3,2,3,37,36,3,4,3,1,1,1.0,1.0,1.88,559.84,11.567,1,1.0,100
3,4,22,3,2,4,52,25,2,4,4,2,1,2.0,2.0,4.49,564.33,1.294,0,2.0,100
3,4,24,3,1,1,2,29,2,3,2,1,1,2.0,2.0,3.82,568.15,1.722,0,,100
3,4,25,3,1,2,19,36,2,5,2,1,1,2.0,2.0,3.35,571.5,1.168,0,1.0,100
3,4,26,3,1,3,50,9,3,2,2,2,1,1.0,1.0,2.04,573.54,1.215,1,2.0,100
3,4,27,3,1,4,19,50,2,4,2,1,1,2.0,2.0,4.73,578.27,10.428,0,2.0,100
3,4,28,3,1,5,16,20,3,2,3,1,1,2.0,2.0,4.33,582.6,5.945,0,1.0,100
3,4,29,3,1,6,40,34,4,5,4,1,1,2.0,2.0,4.92,587.52,2.512,0,1.0,100
3,4,30,3,2,1,14,7,3,2,2,2,1,2.0,2.0,4.24,591.76,5.792,0,2.0,100
3,4,31,3,2,2,38,29,3,5,3,1,1,1.0,1.0,2.22,593.98,8.837,1,2.0,100
3,4,32,3,2,3,22,34,4,3,4,1,1,1.0,1.0,1.96,595.94,1.774,1,1.0,100
3,4,33,3,2,4,29,24,5,2,5,1,1,1.0,1.0,1.87,597.81,4.103,1,1.0,100
3,4,34,3,1,1,19,6,2,3,2,1,1,2.0,2.0,3.9,601.71,3.705,0,1.0,100
3,4,36,3,1,3,26,24,3,2,2,2,1,1.0,1.0,2.14,603.85,1.853,1,,100
3,4,37,3,2,1,14,12,2,4,4,2,1,2.0,2.0,3.47,607.32,12.359,0,1.0,100
3,4,39,3,1,1,49,19,4,3,4,1,1,2.0,2.0,3.72,613.11,3.222,0,1.0,100
3,4,40,3,1,2,53,31,2,4,4,2,1,1.0,1.0,2.06,615.17,11.055,1,2.0,100
3,4,41,3,1,3,17,35,3,5,3,1,1,2.0,2.0,3.48,618.65,3.429,0,2.0,100
3,4,42,3,1,4,19,21,5,4,4,2,1,1.0,1.0,2.01,620.66,2.23,1,2.0,100
3,4,44,3,1,1,28,27,3,5,3,1,1,2.0,2.0,3.06,623.72,6.496,0,,100
3,4,45,3,1,2,23,2,2,3,2,1,1,2.0,2.0,3.77,627.49,4.071,0,1.0,100
3,4,46,3,1,3,26,41,2,5,5,2,1,1.0,1.0,2.05,629.54,4.685,1,2.0,100
3,4,47,3,1,4,45,50,5,4,5,1,1,2.0,2.0,3.85,633.39,5.536,0,2.0,100
3,4,48,3,2,1,54,25,5,4,5,1,1,1.0,1.0,2.15,635.54,8.438,1,1.0,100
3,4,49,3,2,2,30,50,2,3,3,2,1,2.0,2.0,3.7,639.24,6.359,0,2.0,100
3,4,50,3,2,3,5,27,5,3,5,1,1,1.0,1.0,1.73,640.97,2.716,1,2.0,100
3,4,51,3,2,4,8,10,2,4,4,2,1,2.0,2.0,3.42,644.39,1.969,0,2.0,100
3,4,52,3,1,1,50,19,4,3,4,1,1,2.0,2.0,4.5,648.89,2.214,0,2.0,100
3,4,53,3,1,2,9,21,2,5,2,1,1,2.0,2.0,3.95,652.84,11.071,0,1.0,100
3,4,55,3,1,4,21,26,5,2,2,2,1,1.0,1.0,2.04,654.88,4.632,1,,100
3,4,56,3,1,5,33,43,4,5,5,2,1,1.0,1.0,2.11,656.99,4.535,1,1.0,100
3,4,57,3,1,6,37,30,4,3,4,1,1,2.0,2.0,3.0,659.99,2.652,0,2.0,100
3,4,58,3,2,1,11,10,4,2,2,2,1,2.0,2.0,3.7,663.69,4.792,0,2.0,100
3,4,59,3,2,2,5,15,2,5,5,2,1,2.0,2.0,3.67,667.36,2.443,0,1.0,100
3,4,60,3,2,3,16,45,2,4,4,2,1,2.0,2.0,3.52,670.88,3.047,0,1.0,100
3,4,61,3,2,4,1,23,2,3,3,2,1,2.0,2.0,3.91,674.79,4.493,0,1.0,100
3,4,62,3,2,5,8,54,5,3,5,1,1,1.0,1.0,2.18,676.97,2.236,1,2.0,100
3,4,63,3,1,1,45,47,2,5,2,1,1,2.0,2.0,3.98,680.95,5.719,0,1.0,100
3,4,64,3,1,2,21,43,4,3,4,1,1,2.0,2.0,4.58,685.53,2.321,0,1.0,100
3,4,65,3,1,3,46,39,3,4,3,1,1,2.0,2.0,3.67,689.2,3.417,0,1.0,100
3,4,66,3,2,1,36,30,4,2,4,1,1,1.0,1.0,2.0,691.2,8.071,1,1.0,100
3,4,67,3,2,2,42,22,3,4,4,2,1,2.0,2.0,3.63,694.83,5.575,0,2.0,100
3,4,68,3,1,1,21,50,3,4,3,1,1,2.0,2.0,4.28,699.11,3.966,0,2.0,100
3,4,69,3,1,2,15,52,5,2,5,1,1,2.0,2.0,3.88,702.99,4.767,0,1.0,100
3,4,70,3,2,1,43,53,5,4,5,1,1,1.0,1.0,2.06,705.05,2.999,1,1.0,100
3,4,71,3,2,2,37,6,4,2,2,2,1,2.0,2.0,4.31,709.36,6.345,0,2.0,100
3,4,72,3,2,3,37,27,4,2,2,2,1,2.0,2.0,3.96,713.32,3.719,0,1.0,100
3,4,73,3,2,4,43,10,5,4,4,2,1,2.0,2.0,4.42,717.74,1.3,0,1.0,100
3,4,74,3,2,5,45,43,5,3,3,2,1,2.0,2.0,5.09,722.83,5.126,0,1.0,100
3,4,75,3,2,6,54,22,3,5,5,2,1,2.0,2.0,4.25,727.08,1.462,0,1.0,100
3,4,76,3,1,1,54,17,5,4,5,1,1,2.0,2.0,3.99,731.07,5.149,0,2.0,100
3,4,77,3,2,1,47,9,2,5,2,1,1,1.0,1.0,2.11,733.18,10.069,1,1.0,100
3,4,78,3,2,2,27,10,3,4,4,2,1,2.0,2.0,4.03,737.21,2.15,0,2.0,100
3,4,79,3,2,3,29,50,3,2,2,2,1,2.0,2.0,3.48,740.69,3.148,0,1.0,100
3,4,80,3,1,1,12,48,4,2,2,2,1,1.0,1.0,2.06,742.75,3.445,1,1.0,100
3,4,81,3,1,2,34,11,5,3,3,2,1,1.0,1.0,2.0,744.75,3.33,1,1.0,100
3,4,82,3,1,3,36,45,4,3,4,1,1,2.0,2.0,3.87,748.62,3.191,0,2.0,100
3,4,83,3,1,4,8,15,2,3,2,1,1,2.0,2.0,4.6,753.22,3.686,0,1.0,100
3,4,84,3,1,5,45,11,5,2,5,1,1,2.0,2.0,4.88,758.1,5.934,0,1.0,100
4,1,1,1,2,1,42,18,5,3,5,1,1,2.0,2.0,3.8,3.8,6.463,1,,101
4,1,2,1,2,2,6,32,2,4,2,1,1,2.0,2.0,3.22,7.02,5.232,1,1.0,101
4,1,3,1,2,3,52,22,2,3,3,2,1,1.0,1.0,2.01,9.03,5.939,0,2.0,101
4,1,4,1,2,4,1,42,5,4,4,2,1,1.0,1.0,2.03,11.06,6.355,0,1.0,101
4,1,5,1,2,5,52,50,5,3,3,2,1,1.0,1.0,1.86,12.92,8.474,0,1.0,101
4,1,6,1,1,1,20,5,4,5,5,2,1,2.0,2.0,4.56,17.48,9.541,1,1.0,101
4,1,7,1,1,2,54,27,3,2,2,2,1,2.0,2.0,4.56,22.04,7.221,1,1.0,101
4,1,8,1,1,3,35,28,4,5,4,1,1,1.0,1.0,2.0,24.04,8.889,0,2.0,101
4,1,9,1,1,4,29,12,4,3,4,1,1,1.0,1.0,2.04,26.08,8.907,0,1.0,101
4,1,10,1,1,5,22,17,2,4,2,1,1,1.0,1.0,2.02,28.1,5.117,0,1.0,101
4,1,11,1,2,1,42,45,4,5,5,2,1,1.0,1.0,1.98,30.08,8.477,0,2.0,101
4,1,12,1,2,2,36,21,5,4,5,1,1,2.0,2.0,4.34,34.42,4.119,1,2.0,101
4,1,13,1,2,3,8,13,4,2,2,2,1,1.0,1.0,1.93,36.35,2.44,0,2.0,101
4,1,14,1,2,4,19,50,4,5,5,2,1,1.0,1.0,2.26,38.61,14.876,0,1.0,101
4,1,15,1,2,5,1,45,4,5,4,1,1,2.0,2.0,3.94,42.55,4.07,1,2.0,101
4,1,16,1,2,6,19,45,5,2,2,2,1,1.0,1.0,2.01,44.56,5.281,0,2.0,101
4,1,17,1,1,1,43,24,2,3,3,2,1,2.0,2.0,4.5,49.06,8.963,1,1.0,101
4,1,18,1,1,2,42,51,4,2,2,2,1,2.0,2.0,4.03,53.09,7.242,1,1.0,101
4,1,19,1,1,3,12,47,3,2,2,2,1,2.0,2.0,3.95,57.04,6.99,1,1.0,101
4,1,20,1,1,4,31,14,2,3,2,1,1,1.0,1.0,1.9,58.94,4.388,0,2.0,101
4,1,21,1,2,1,10,38,2,5,5,2,1,1.0,1.0,2.03,60.97,7.874,0,2.0,101
4,1,22,1,2,2,7,52,2,5,2,1,1,2.0,2.0,3.37,64.34,3.676,1,2.0,101
4,1,23,1,1,1,15,52,4,5,5,2,1,2.0,2.0,4.34,68.68,3.751,1,2.0,101
4,1,24,1,1,2,41,1,5,2,2,2,1,2.0,2.0,4.77,73.45,3.718,1,1.0,101
4,1,25,1,2,1,52,14,5,3,5,1,1,2.0,2.0,3.67,77.12,10.135,1,2.0,101
4,1,26,1,2,2,23,46,5,3,3,2,1,1.0,1.0,2.1,79.22,10.135,0,2.0,101
4,1,27,1,2,3,30,21,2,4,2,1,1,2.0,2.0,4.59,83.81,9.015,1,2.0,101
4,1,29,1,1,1,23,3,3,4,3,1,1,1.0,1.0,1.81,85.62,12.514,0,,101
4,1,30,1,1,2,27,38,4,2,2,2,1,2.0,2.0,3.32,88.94,8.635,1,2.0,101
4,1,31,1,1,3,35,18,4,5,4,1,1,1.0,1.0,2.07,91.01,4.959,0,2.0,101
4,1,33,1,1,5,17,7,4,2,2,2,1,2.0,2.0,4.33,99.15,11.829,1,1.0,101
4,1,34,1,1,6,34,42,3,5,5,2,1,2.0,2.0,4.38,103.53,15.753,1,1.0,101
4,1,36,1,2,2,38,26,2,4,2,1,1,2.0,2.0,4.61,112.48,10.325,1,1.0,101
4,1,37,1,2,3,19,30,2,5,5,2,1,1.0,1.0,2.08,114.56,9.742,0,2.0,101
4,1,38,1,1,1,3,13,2,5,5,2,1,2.0,2.0,4.56,119.12,3.23,1,1.0,101
4,1,39,1,1,2,42,29,3,4,3,1,1,1.0,1.0,1.86,120.98,3.722,0,2.0,101
4,1,40,1,1,3,47,13,2,3,2,1,1,1.0,1.0,2.0,122.98,4.099,0,1.0,101
4,1,41,1,2,1,7,52,5,2,5,1,1,2.0,2.0,3.93,126.91,1.74,1,1.0,101
4,1,42,1,1,1,12,8,5,4,4,2,1,2.0,2.0,3.24,130.15,2.364,1,2.0,101
4,1,43,1,2,1,16,22,2,4,2,1,1,2.0,2.0,4.12,134.27,3.955,1,2.0,101
4,1,44,1,2,2,35,36,2,5,2,1,1,2.0,2.0,3.5,137.77,2.586,1,1.0,101
4,1,45,1,2,3,25,50,3,5,3,1,1,2.0,2.0,4.67,142.44,3.904,1,1.0,101
4,1,46,1,1,1,43,32,3,2,2,2,1,2.0,2.0,3.62,146.06,8.585,1,2.0,101
4,1,47,1,1,2,28,26,5,4,4,2,1,2.0,2.0,4.25,150.31,7.727,1,1.0,101
4,1,48,1,1,3,50,9,5,2,2,2,1,2.0,2.0,4.1,154.41,2.56,1,1.0,101
4,1,49,1,1,4,21,2,2,3,2,1,1,1.0,1.0,1.89,156.3,5.383,0,2.0,101
4,1,50,1,1,5,16,6,4,3,4,1,1,1.0,1.0,1.74,158.04,9.605,0,1.0,101
4,1,51,1,2,1,51,2,4,2,4,1,1,2.0,2.0,3.97,162.01,8.698,1,1.0,101
4,1,52,1,2,2,10,26,4,3,3,2,1,1.0,1.0,1.88,163.89,6.276,0,2.0,101
4,1,53,1,2,3,2,24,3,4,3,1,1,2.0,2.0,4.29,168.18,10.094,1,2.0,101
4,1,54,1,2,4,28,2,2,4,4,2,1,1.0,1.0,2.06,170.24,2.16,0,2.0,101
4,1,55,1,2,5,38,31,3,4,4,2,1,1.0,1.0,2.2,172.44,5.504,0,1.0,101
4,1,56,1,1,1,37,43,4,3,3,2,1,2.0,2.0,4.28,176.72,15.849,1,1.0,101
4,1,57,1,2,1,2,48,5,2,2,2,1,1.0,1.0,1.92,178.64,2.077,0,1.0,101
4,1,58,1,2,2,44,46,3,5,5,2,1,1.0,1.0,2.04,180.68,9.567,0,1.0,101
4,1,59,1,2,3,23,18,2,3,2,1,1,2.0,2.0,3.52,184.2,10.286,1,2.0,101
4,1,60,1,2,4,44,15,3,2,2,2,1,1.0,1.0,2.0,186.2,4.824,0,2.0,101
4,1,61,1,1,1,32,20,3,5,5,2,1,2.0,2.0,3.98,190.18,3.212,1,1.0,101
4,1,63,1,1,3,11,30,5,4,4,2,1,2.0,2.0,4.0,194.18,14.686,1,,101
4,1,64,1,1,4,38,13,3,4,3,1,1,1.0,1.0,1.96,196.14,6.969,0,2.0,101
4,1,65,1,1,5,5,36,5,2,2,2,1,2.0,2.0,4.52,200.66,7.263,1,2.0,101
4,1,66,1,1,6,39,8,3,2,2,2,1,2.0,2.0,3.12,203.78,1.834,1,1.0,101
4,1,67,1,2,1,38,18,4,3,3,2,1,1.0,1.0,2.05,205.83,9.686,0,1.0,101
4,1,68,1,2,2,53,44,4,3,4,1,1,2.0,2.0,4.42,210.25,10.472,1,2.0,101
4,1,69,1,1,1,18,8,3,4,3,1,1,1.0,1.0,2.09,212.34,5.29,0,1.0,101
4,1,70,1,1,2,29,7,2,5,2,1,1,1.0,1.0,2.07,214.41,6.188,0,1.0,101
4,1,71,1,1,3,12,50,5,4,4,2,1,2.0,2.0,4.02,218.43,9.114,1,2.0,101
4,1,72,1,2,1,3,34,3,5,5,2,1,1.0,1.0,2.08,220.51,6.162,0,1.0,101
4,1,73,1,2,2,12,35,2,5,2,1,1,2.0,2.0,4.27,224.78,4.57,1,2.0,101
4,1,74,1,2,3,16,48,5,3,3,2,1,1.0,1.0,1.97,226.75,5.344,0,2.0,101
4,1,75,1,2,4,29,38,5,3,3,2,1,1.0,1.0,1.96,228.71,7.193,0,1.0,101
4,1,76,1,2,5,31,24,4,2,4,1,1,2.0,2.0,3.86,232.57,3.631,1,2.0,101
4,1,78,1,1,1,39,21,3,5,5,2,1,2.0,2.0,3.89,238.29,1.984,1,1.0,101
4,1,79,1,1,2,30,51,3,2,3,1,1,1.0,1.0,2.01,240.3,6.686,0,2.0,101
4,1,80,1,2,1,42,52,3,5,5,2,1,1.0,1.0,2.04,242.34,2.807,0,2.0,101
4,1,81,1,1,1,34,4,2,3,2,1,1,1.0,1.0,2.17,244.51,8.773,0,2.0,101
4,1,82,1,1,2,53,51,2,4,4,2,1,2.0,2.0,3.83,248.34,9.731,1,2.0,101
4,1,83,1,1,3,30,12,4,2,4,1,1,1.0,1.0,2.07,250.41,6.844,0,2.0,101
4,1,84,1,1,4,10,54,3,2,2,2,1,2.0,2.0,4.38,254.79,13.863,1,2.0,101
4,1,2,2,1,2,51,7,5,2,2,2,1,2.0,2.0,3.53,260.43,2.257,1,2.0,101
4,1,3,2,1,3,23,24,5,3,3,2,1,2.0,2.0,4.1,264.53,2.324,1,1.0,101
4,1,4,2,2,1,13,15,2,3,3,2,1,1.0,1.0,2.03,266.56,3.589,0,1.0,101
4,1,5,2,2,2,30,21,3,4,4,2,1,1.0,1.0,1.88,268.44,2.715,0,1.0,101
4,1,6,2,2,3,15,43,4,2,2,2,1,1.0,1.0,1.91,270.35,1.572,0,1.0,101
4,1,7,2,1,1,34,6,5,3,5,1,1,1.0,1.0,2.13,272.48,5.474,0,2.0,101
4,1,8,2,2,1,32,22,5,2,2,2,1,1.0,1.0,1.98,274.46,2.405,0,2.0,101
4,1,9,2,2,2,22,33,5,3,3,2,1,1.0,1.0,2.05,276.51,8.426,0,1.0,101
4,1,10,2,2,3,35,9,5,3,3,2,1,1.0,1.0,2.01,278.52,4.719,0,1.0,101
4,1,11,2,2,4,23,33,5,2,2,2,1,1.0,1.0,1.93,280.45,5.567,0,1.0,101
4,1,12,2,2,5,20,22,3,2,2,2,1,1.0,1.0,1.93,282.38,3.742,0,1.0,101
4,1,13,2,1,1,54,23,5,4,4,2,1,2.0,2.0,4.21,286.59,2.407,1,1.0,101
4,1,14,2,1,2,29,15,3,2,3,1,1,1.0,1.0,1.89,288.48,10.211,0,2.0,101
4,1,15,2,1,3,13,34,4,5,5,2,1,2.0,2.0,4.37,292.85,4.393,1,2.0,101
4,1,16,2,1,4,28,25,5,3,3,2,1,2.0,2.0,4.27,297.12,14.094,1,1.0,101
4,1,17,2,2,1,40,2,5,4,4,2,1,1.0,1.0,1.9,299.02,4.593,0,1.0,101
4,1,18,2,2,2,49,51,4,3,4,1,1,2.0,2.0,3.87,302.89,10.151,1,2.0,101
4,1,19,2,2,3,35,37,4,5,5,2,1,1.0,1.0,1.86,304.75,2.694,0,2.0,101
4,1,20,2,2,4,32,50,4,3,3,2,1,1.0,1.0,1.74,306.49,10.12,0,1.0,101
4,1,21,2,2,5,5,33,5,3,5,1,1,2.0,2.0,4.46,310.95,10.512,1,2.0,101
4,1,22,2,2,6,33,39,2,3,2,1,1,2.0,2.0,3.76,314.71,3.578,1,1.0,101
4,1,23,2,1,1,23,33,4,5,5,2,1,2.0,2.0,4.15,318.86,3.489,1,2.0,101
4,1,24,2,1,2,3,28,3,4,4,2,1,2.0,2.0,4.11,322.97,1.45,1,1.0,101
4,1,25,2,1,3,44,31,2,4,4,2,1,2.0,2.0,4.01,326.98,2.334,1,1.0,101
4,1,26,2,1,4,32,28,5,2,2,2,1,2.0,2.0,3.53,330.51,1.662,1,1.0,101
4,1,27,2,1,5,49,26,2,3,3,2,1,2.0,2.0,3.55,334.06,2.377,1,1.0,101
4,1,28,2,2,1,11,12,2,5,5,2,1,1.0,1.0,1.96,336.02,2.368,0,1.0,101
4,1,29,2,1,1,9,39,2,4,2,1,1,1.0,1.0,1.86,337.88,2.614,0,2.0,101
4,1,30,2,1,2,49,38,3,4,4,2,1,2.0,2.0,3.5,341.38,7.787,1,2.0,101
4,1,31,2,1,3,25,6,3,5,3,1,1,1.0,1.0,2.17,343.55,6.066,0,2.0,101
4,1,32,2,1,4,40,6,3,5,5,2,1,2.0,2.0,4.03,347.58,1.396,1,2.0,101
4,1,33,2,1,5,54,4,4,2,2,2,1,2.0,2.0,3.43,351.01,4.849,1,1.0,101
4,1,34,2,1,6,46,36,5,4,5,1,1,1.0,1.0,2.0,353.01,7.556,0,2.0,101
4,1,35,2,2,1,37,19,4,3,4,1,1,2.0,2.0,3.47,356.48,11.084,1,1.0,101
4,1,36,2,2,2,42,3,3,5,3,1,1,2.0,2.0,3.36,359.84,3.486,1,1.0,101
4,1,37,2,1,1,36,29,3,2,2,2,1,2.0,2.0,3.88,363.72,6.312,1,2.0,101
4,1,38,2,1,2,50,15,3,2,3,1,1,1.0,1.0,2.11,365.83,1.969,0,2.0,101
4,1,39,2,2,1,49,35,2,4,4,2,1,1.0,1.0,2.02,367.85,1.839,0,2.0,101
4,1,40,2,2,2,50,7,2,3,3,2,1,1.0,1.0,2.08,369.93,4.197,0,1.0,101
4,1,41,2,2,3,26,53,4,3,3,2,1,1.0,1.0,1.86,371.79,2.921,0,1.0,101
4,1,42,2,2,4,3,24,2,3,3,2,1,1.0,1.0,1.95,373.74,2.114,0,1.0,101
4,1,43,2,1,1,34,32,5,2,2,2,1,2.0,2.0,3.88,377.62,5.859,1,1.0,101
4,1,44,2,2,1,24,10,3,4,4,2,1,1.0,1.0,1.86,379.48,5.614,0,1.0,101
4,1,45,2,2,2,46,22,3,5,5,2,1,1.0,1.0,1.84,381.32,2.762,0,1.0,101
4,1,46,2,2,3,13,35,4,2,2,2,1,1.0,1.0,2.11,383.43,1.642,0,1.0,101
4,1,47,2,2,4,54,18,5,2,2,2,1,1.0,1.0,2.0,385.43,3.966,0,1.0,101
4,1,48,2,1,1,31,39,5,4,4,2,1,2.0,2.0,3.7,389.13,2.037,1,1.0,101
4,1,49,2,1,2,34,52,3,2,2,2,1,2.0,2.0,4.38,393.51,3.616,1,1.0,101
4,1,50,2,1,3,5,16,3,4,4,2,1,2.0,2.0,4.11,397.62,3.765,1,1.0,101
4,1,51,2,1,4,36,22,4,3,4,1,1,1.0,1.0,1.88,399.5,6.731,0,2.0,101
4,1,52,2,2,1,51,10,3,2,2,2,1,1.0,1.0,2.16,401.66,4.132,0,2.0,101
4,1,53,2,2,2,18,20,3,5,5,2,1,1.0,1.0,2.03,403.69,4.579,0,1.0,101
4,1,54,2,2,3,46,44,4,2,2,2,1,1.0,1.0,2.17,405.86,1.585,0,1.0,101
4,1,55,2,1,1,3,20,2,5,2,1,1,1.0,1.0,2.13,407.99,6.255,0,2.0,101
4,1,56,2,1,2,1,51,4,2,2,2,1,2.0,2.0,3.68,411.67,3.267,1,2.0,101
4,1,57,2,2,1,28,42,5,4,4,2,1,1.0,1.0,1.85,413.52,5.022,0,1.0,101
4,1,58,2,1,1,39,48,4,5,5,2,1,2.0,2.0,3.97,417.49,4.242,1,1.0,101
4,1,59,2,1,2,33,17,4,2,4,1,1,1.0,1.0,1.96,419.45,5.334,0,2.0,101
4,1,60,2,1,3,45,43,2,5,5,2,1,2.0,2.0,3.6,423.05,4.358,1,2.0,101
4,1,61,2,1,4,12,32,2,3,2,1,1,1.0,1.0,2.06,425.11,12.341,0,2.0,101
4,1,62,2,1,5,18,43,2,4,2,1,1,1.0,1.0,2.18,427.29,1.821,0,1.0,101
4,1,63,2,1,6,25,47,3,4,3,1,1,1.0,1.0,1.94,429.23,1.834,0,1.0,101
4,1,64,2,2,1,16,41,4,2,4,1,1,2.0,2.0,3.6,432.83,1.078,1,1.0,101
4,1,65,2,2,2,17,33,2,4,2,1,1,2.0,2.0,3.88,436.71,1.457,1,1.0,101
4,1,66,2,2,3,35,4,5,4,4,2,1,1.0,1.0,2.08,438.79,9.875,0,2.0,101
4,1,67,2,2,4,12,31,2,4,4,2,1,1.0,1.0,1.9,440.69,4.126,0,1.0,101
4,1,68,2,2,5,12,26,2,4,4,2,1,1.0,1.0,1.86,442.55,7.895,0,1.0,101
4,1,69,2,1,1,48,1,2,5,5,2,1,2.0,2.0,3.94,446.49,4.257,1,1.0,101
4,1,70,2,1,2,16,38,5,2,2,2,1,2.0,2.0,3.97,450.46,2.396,1,1.0,101
4,1,71,2,1,3,27,19,3,2,2,2,1,2.0,2.0,4.23,454.69,3.777,1,1.0,101
4,1,72,2,1,4,49,2,3,4,3,1,1,1.0,1.0,1.93,456.62,2.656,0,2.0,101
4,1,73,2,1,5,51,2,4,3,4,1,1,1.0,1.0,1.98,458.6,5.683,0,1.0,101
4,1,74,2,2,1,54,1,4,5,5,2,1,1.0,1.0,1.95,460.55,5.525,0,2.0,101
4,1,75,2,2,2,42,28,4,5,5,2,1,1.0,1.0,1.99,462.54,1.741,0,1.0,101
4,1,76,2,1,1,54,14,3,5,5,2,1,2.0,2.0,4.72,467.26,11.909,1,1.0,101
4,1,77,2,1,2,42,8,4,3,3,2,1,2.0,2.0,3.71,470.97,2.663,1,1.0,101
4,1,78,2,1,3,6,30,2,5,2,1,1,1.0,1.0,1.84,472.81,8.841,0,2.0,101
4,1,79,2,2,1,24,20,2,5,5,2,1,1.0,1.0,2.06,474.87,2.253,0,2.0,101
4,1,80,2,2,2,4,40,3,5,5,2,1,1.0,1.0,1.89,476.76,1.601,0,1.0,101
4,1,81,2,2,3,33,35,5,3,3,2,1,1.0,1.0,2.0,478.76,14.606,0,1.0,101
4,1,82,2,2,4,47,7,2,5,5,2,1,1.0,1.0,1.93,480.69,2.539,0,1.0,101
4,1,83,2,2,5,10,26,4,5,4,1,1,2.0,2.0,4.25,484.94,2.331,1,2.0,101
4,1,84,2,2,6,39,7,2,3,2,1,1,2.0,2.0,4.26,489.2,10.795,1,1.0,101
4,1,1,3,1,1,27,38,2,3,3,2,1,2.0,2.0,3.9,493.1,4.193,1,,101
4,1,2,3,1,2,37,27,4,3,3,2,1,2.0,2.0,3.03,496.13,1.959,1,1.0,101
4,1,3,3,1,3,35,5,2,4,4,2,1,2.0,2.0,4.06,500.19,4.326,1,1.0,101
4,1,4,3,1,4,52,18,5,2,2,2,1,2.0,2.0,4.75,504.94,6.248,1,1.0,101
4,1,5,3,2,1,54,45,2,3,2,1,1,2.0,2.0,4.48,509.42,14.402,1,2.0,101
4,1,6,3,1,1,40,49,2,3,2,1,1,1.0,1.0,1.81,511.23,4.192,0,1.0,101
4,1,7,3,2,1,51,39,5,2,5,1,1,2.0,2.0,3.96,515.19,3.734,1,1.0,101
4,1,8,3,2,2,52,15,4,5,4,1,1,2.0,2.0,3.68,518.87,3.462,1,1.0,101
4,1,9,3,2,3,54,47,4,3,4,1,1,2.0,2.0,3.52,522.39,4.201,1,1.0,101
4,1,10,3,2,4,14,12,3,2,3,1,1,2.0,2.0,3.42,525.81,4.751,1,1.0,101
4,1,11,3,1,1,33,16,4,3,4,1,1,1.0,1.0,2.03,527.84,4.39,0,1.0,101
4,1,12,3,1,2,17,36,3,4,3,1,1,1.0,1.0,1.95,529.79,7.708,0,1.0,101
4,1,13,3,1,3,14,19,2,5,2,1,1,1.0,1.0,2.01,531.8,10.509,0,1.0,101
4,1,14,3,1,4,36,42,4,3,4,1,1,1.0,1.0,1.96,533.76,4.415,0,1.0,101
4,1,15,3,1,5,36,23,3,5,3,1,1,1.0,1.0,1.95,535.71,2.731,0,1.0,101
4,1,16,3,1,6,44,36,3,4,4,2,1,2.0,2.0,4.17,539.88,2.555,1,2.0,101
4,1,17,3,2,1,5,26,5,2,2,2,1,1.0,1.0,2.09,541.97,1.738,0,1.0,101
4,1,18,3,2,2,27,16,2,5,2,1,1,2.0,2.0,5.0,546.97,4.778,1,2.0,101
4,1,19,3,1,1,27,40,4,2,4,1,1,1.0,1.0,1.84,548.81,5.065,0,1.0,101
4,1,20,3,1,2,4,38,2,3,2,1,1,1.0,1.0,1.88,550.69,4.787,0,1.0,101
4,1,21,3,1,3,11,20,5,4,5,1,1,1.0,1.0,2.12,552.81,1.457,0,1.0,101
4,1,22,3,1,4,1,19,3,5,5,2,1,2.0,2.0,3.82,556.63,6.909,1,2.0,101
4,1,23,3,1,5,16,41,2,4,4,2,1,2.0,2.0,3.35,559.98,3.358,1,1.0,101
4,1,24,3,2,1,24,27,2,4,4,2,1,1.0,1.0,2.04,562.02,3.805,0,1.0,101
4,1,25,3,2,2,26,20,3,2,2,2,1,1.0,1.0,2.18,564.2,3.715,0,1.0,101
4,1,26,3,2,3,12,29,3,2,3,1,1,2.0,2.0,4.33,568.53,10.339,1,2.0,101
4,1,27,3,2,4,47,34,3,2,2,2,1,1.0,1.0,2.23,570.76,8.084,0,2.0,101
4,1,28,3,2,5,34,21,3,4,3,1,1,2.0,2.0,4.24,575.0,3.894,1,2.0,101
4,1,29,3,2,6,20,37,5,2,2,2,1,1.0,1.0,2.22,577.22,2.615,0,2.0,101
4,1,30,3,1,1,11,35,3,5,3,1,1,1.0,1.0,1.96,579.18,4.636,0,2.0,101
4,1,31,3,1,2,31,47,4,3,3,2,1,2.0,2.0,3.46,582.64,7.672,1,2.0,101
4,1,32,3,2,1,45,46,5,3,3,2,1,1.0,1.0,1.98,584.62,2.899,0,1.0,101
4,1,33,3,2,2,6,12,2,3,2,1,1,2.0,2.0,4.56,589.18,4.7,1,2.0,101
4,1,34,3,2,3,8,44,2,5,5,2,1,1.0,1.0,1.87,591.05,2.117,0,2.0,101
4,1,35,3,2,4,22,38,3,2,3,1,1,2.0,2.0,4.3,595.35,10.926,1,2.0,101
4,1,36,3,2,5,53,29,4,5,4,1,1,2.0,2.0,3.72,599.07,3.614,1,1.0,101
4,1,37,3,1,1,30,14,2,4,4,2,1,2.0,2.0,4.26,603.33,5.323,1,2.0,101
4,1,38,3,1,2,3,33,2,5,5,2,1,2.0,2.0,3.48,606.81,2.74,1,1.0,101
4,1,39,3,1,3,4,39,5,4,4,2,1,2.0,2.0,4.04,610.85,2.891,1,1.0,101
4,1,40,3,2,1,11,15,4,2,2,2,1,1.0,1.0,1.76,612.61,4.389,0,1.0,101
4,1,41,3,2,2,28,12,5,4,5,1,1,2.0,2.0,3.77,616.38,1.875,1,2.0,101
4,1,42,3,2,3,49,20,3,2,2,2,1,1.0,1.0,2.05,618.43,5.565,0,2.0,101
4,1,43,3,1,1,54,8,4,3,3,2,1,2.0,2.0,3.85,622.28,1.764,1,1.0,101
4,1,44,3,1,2,25,40,3,2,2,2,1,2.0,2.0,4.58,626.86,1.771,1,1.0,101
4,1,45,3,1,3,9,33,2,4,4,2,1,2.0,2.0,3.7,630.56,3.761,1,1.0,101
4,1,46,3,1,4,6,22,4,5,5,2,1,2.0,2.0,2.9,633.46,1.568,1,1.0,101
4,1,47,3,1,5,50,35,5,3,3,2,1,2.0,2.0,3.42,636.88,4.448,1,1.0,101
4,1,48,3,1,6,1,12,4,5,5,2,1,2.0,2.0,4.5,641.38,4.026,1,1.0,101
4,1,49,3,2,1,5,52,4,5,5,2,1,1.0,1.0,1.99,643.37,2.783,0,1.0,101
4,1,50,3,2,2,54,19,3,4,4,2,1,1.0,1.0,2.04,645.41,2.253,0,1.0,101
4,1,51,3,2,3,37,45,4,2,2,2,1,1.0,1.0,2.11,647.52,4.281,0,1.0,101
4,1,52,3,1,1,2,29,5,2,2,2,1,2.0,2.0,3.0,650.52,3.898,1,1.0,101
4,1,53,3,2,1,33,54,5,4,4,2,1,1.0,1.0,1.92,652.44,4.148,0,1.0,101
4,1,54,3,1,1,1,37,3,5,5,2,1,2.0,2.0,3.67,656.11,4.075,1,1.0,101
4,1,55,3,1,2,19,22,5,3,3,2,1,2.0,2.0,3.52,659.63,5.942,1,1.0,101
4,1,56,3,2,1,8,44,5,3,3,2,1,1.0,1.0,1.98,661.61,7.557,0,1.0,101
4,1,57,3,2,2,6,33,5,3,3,2,1,1.0,1.0,2.18,663.79,5.108,0,1.0,101
4,1,58,3,2,3,34,2,3,5,5,2,1,1.0,1.0,2.0,665.79,2.454,0,1.0,101
4,1,59,3,2,4,3,21,4,3,3,2,1,1.0,1.0,2.14,667.93,1.498,0,1.0,101
4,1,60,3,1,1,44,26,3,5,5,2,1,2.0,2.0,3.67,671.6,1.41,1,1.0,101
4,1,61,3,1,2,51,9,3,5,5,2,1,2.0,2.0,4.0,675.6,2.383,1,1.0,101
4,1,62,3,1,3,33,8,2,3,3,2,1,2.0,2.0,3.63,679.23,3.829,1,1.0,101
4,1,63,3,1,4,52,31,2,4,4,2,1,2.0,2.0,4.28,683.51,4.673,1,1.0,101
4,1,64,3,1,5,13,54,2,5,5,2,1,2.0,2.0,3.88,687.39,2.308,1,1.0,101
4,1,65,3,2,1,46,30,2,4,4,2,1,1.0,1.0,2.06,689.45,5.037,0,1.0,101
4,1,66,3,2,2,28,34,4,5,4,1,1,2.0,2.0,4.31,693.76,1.793,1,2.0,101
4,1,67,3,2,3,32,37,5,4,4,2,1,1.0,1.0,1.99,695.75,5.711,0,2.0,101
4,1,68,3,2,4,37,49,4,2,2,2,1,1.0,1.0,2.1,697.85,7.113,0,1.0,101
4,1,69,3,2,5,6,25,5,2,2,2,1,1.0,1.0,2.27,700.12,2.736,0,1.0,101
4,1,70,3,1,1,7,24,5,2,5,1,1,1.0,1.0,2.06,702.18,5.729,0,2.0,101
4,1,71,3,1,2,5,33,5,4,4,2,1,2.0,2.0,3.99,706.17,5.337,1,2.0,101
4,1,72,3,1,3,34,40,4,5,4,1,1,1.0,1.0,2.11,708.28,4.344,0,2.0,101
4,1,73,3,2,1,20,19,5,4,4,2,1,1.0,1.0,2.01,710.29,1.728,0,2.0,101
4,1,74,3,2,2,33,10,4,2,4,1,1,2.0,2.0,3.48,713.77,2.913,1,2.0,101
4,1,75,3,2,3,19,23,5,3,3,2,1,1.0,1.0,2.06,715.83,1.737,0,2.0,101
4,1,76,3,2,4,16,7,2,5,5,2,1,1.0,1.0,2.0,717.83,6.169,0,1.0,101
4,1,77,3,2,5,11,2,3,4,4,2,1,1.0,1.0,1.97,719.8,4.816,0,1.0,101
4,1,78,3,2,6,7,49,3,4,3,1,1,2.0,2.0,4.6,724.4,8.828,1,2.0,101
4,1,79,3,1,1,10,7,2,5,5,2,1,2.0,2.0,4.88,729.28,1.241,1,2.0,101
4,1,80,3,1,2,23,26,4,2,2,2,1,2.0,2.0,3.75,733.03,6.021,1,1.0,101
4,1,81,3,1,3,19,51,4,2,2,2,1,2.0,2.0,4.05,737.08,3.626,1,1.0,101
4,1,82,3,1,4,41,40,3,4,3,1,1,1.0,1.0,1.9,738.98,10.062,0,2.0,101
4,1,83,3,2,1,47,51,5,3,5,1,1,2.0,2.0,4.32,743.3,4.52,1,1.0,101
4,1,84,3,2,2,23,44,2,3,2,1,1,2.0,2.0,2.89,746.19,1.249,1,1.0,101
5,2,1,1,2,1,27,30,4,2,4,1,1,2.0,1.0,3.95,3.95,4.12,1,,102
5,2,3,1,1,2,54,33,2,4,2,1,1,1.0,2.0,1.22,5.17,2.815,0,,102
5,2,4,1,2,1,10,4,5,2,2,2,1,1.0,2.0,2.06,7.23,1.504,0,2.0,102
5,2,5,1,2,2,26,38,5,3,5,1,1,2.0,1.0,4.03,11.26,4.362,1,2.0,102
5,2,6,1,2,3,35,44,4,5,5,2,1,1.0,2.0,1.46,12.72,2.276,0,2.0,102
5,2,7,1,2,4,46,6,2,3,2,1,1,2.0,1.0,4.14,16.86,4.473,1,2.0,102
5,2,8,1,1,1,3,31,3,5,5,2,1,2.0,1.0,4.14,21.0,4.55,1,2.0,102
5,2,9,1,1,2,40,43,4,2,4,1,1,1.0,2.0,1.98,22.98,5.551,0,2.0,102
5,2,10,1,1,3,37,25,2,4,2,1,1,1.0,2.0,2.15,25.13,4.775,0,1.0,102
5,2,11,1,1,4,29,28,5,3,5,1,1,1.0,2.0,2.08,27.21,2.351,0,1.0,102
5,2,12,1,1,5,19,50,2,5,2,1,1,1.0,2.0,1.91,29.12,3.974,0,1.0,102
5,2,13,1,1,6,21,53,5,3,5,1,1,1.0,2.0,2.34,31.46,1.63,0,1.0,102
5,2,14,1,2,1,36,49,4,2,4,1,1,2.0,1.0,3.93,35.39,4.352,1,1.0,102
5,2,15,1,2,2,6,21,4,2,4,1,1,2.0,1.0,4.26,39.65,1.87,1,1.0,102
5,2,16,1,2,3,4,24,5,3,5,1,1,2.0,1.0,3.98,43.63,1.855,1,1.0,102
5,2,18,1,1,2,46,20,2,5,2,1,1,1.0,2.0,2.5,48.18,2.22,0,1.0,102
5,2,19,1,1,3,46,9,3,2,3,1,1,1.0,2.0,2.03,50.21,5.276,0,1.0,102
5,2,21,1,1,5,49,12,4,2,4,1,1,1.0,2.0,1.61,53.77,3.211,0,1.0,102
5,2,22,1,2,1,15,3,3,2,2,2,1,1.0,2.0,2.14,55.91,2.605,0,2.0,102
5,2,23,1,2,2,45,37,3,2,2,2,1,1.0,2.0,1.37,57.28,1.701,0,1.0,102
5,2,24,1,1,1,38,3,5,2,2,2,1,2.0,1.0,4.08,61.36,1.097,1,1.0,102
5,2,25,1,2,1,3,12,2,5,5,2,1,1.0,2.0,2.77,64.13,3.911,0,1.0,102
5,2,26,1,2,2,20,8,4,3,4,1,1,2.0,1.0,3.92,68.05,6.567,1,2.0,102
5,2,27,1,2,3,26,4,3,4,4,2,1,1.0,2.0,2.4,70.45,7.31,0,2.0,102
5,2,28,1,2,4,41,8,3,2,2,2,1,1.0,2.0,2.59,73.04,2.857,0,1.0,102
5,2,29,1,2,5,5,38,4,3,3,2,1,1.0,2.0,1.25,74.29,4.608,0,1.0,102
5,2,30,1,2,6,16,42,2,3,2,1,1,2.0,1.0,3.83,78.12,2.352,1,2.0,102
5,2,32,1,1,2,43,21,5,2,5,1,1,1.0,2.0,1.81,82.2,3.415,0,1.0,102
5,2,33,1,1,3,28,54,5,4,5,1,1,1.0,2.0,2.33,84.53,3.054,0,1.0,102
5,2,34,1,2,1,12,11,2,3,3,2,1,1.0,2.0,2.38,86.91,3.865,0,2.0,102
5,2,35,1,2,2,16,21,5,2,2,2,1,1.0,2.0,2.34,89.25,2.134,0,1.0,102
5,2,36,1,2,3,47,20,5,4,4,2,1,1.0,2.0,2.61,91.86,1.965,0,1.0,102
5,2,37,1,2,4,28,52,5,4,5,1,1,2.0,1.0,4.08,95.94,3.295,1,2.0,102
5,2,38,1,2,5,47,15,2,4,4,2,1,1.0,2.0,2.56,98.5,5.479,0,2.0,102
5,2,40,1,1,2,4,20,4,3,4,1,1,1.0,2.0,1.99,104.35,2.022,0,2.0,102
5,2,41,1,1,3,23,43,5,4,4,2,1,2.0,1.0,3.98,108.33,2.6,1,2.0,102
5,2,42,1,1,4,24,32,3,5,3,1,1,1.0,2.0,1.24,109.57,3.822,0,2.0,102
5,2,43,1,2,1,8,5,3,4,3,1,1,2.0,1.0,4.03,113.6,7.893,1,1.0,102
5,2,44,1,1,1,19,26,4,3,4,1,1,1.0,2.0,1.5,115.1,2.087,0,1.0,102
5,2,45,1,1,2,33,31,3,2,3,1,1,1.0,2.0,2.67,117.77,6.201,0,1.0,102
5,2,46,1,1,3,46,30,4,3,4,1,1,1.0,2.0,1.62,119.39,3.535,0,1.0,102
5,2,47,1,1,4,39,30,3,4,3,1,1,1.0,2.0,2.25,121.64,1.583,0,1.0,102
5,2,48,1,1,5,9,14,5,2,5,1,1,1.0,2.0,2.1,123.74,3.496,0,1.0,102
5,2,49,1,2,1,4,1,2,3,2,1,1,2.0,1.0,3.89,127.63,2.11,1,1.0,102
5,2,50,1,2,2,38,19,4,5,4,1,1,2.0,1.0,3.74,131.37,1.678,1,1.0,102
5,2,51,1,2,3,37,26,5,4,4,2,1,1.0,2.0,1.97,133.34,3.838,0,2.0,102
5,2,52,1,1,1,30,20,5,4,5,1,1,1.0,2.0,1.52,134.86,8.176,0,2.0,102
5,2,53,1,1,2,25,38,5,3,5,1,1,1.0,2.0,2.29,137.15,3.434,0,1.0,102
5,2,54,1,1,3,34,16,4,2,2,2,1,2.0,1.0,4.06,141.21,8.087,1,2.0,102
5,2,55,1,1,4,10,24,3,4,4,2,1,2.0,1.0,4.2,145.41,3.024,1,1.0,102
5,2,56,1,2,1,39,24,3,2,3,1,1,2.0,1.0,4.07,149.48,4.129,1,2.0,102
5,2,57,1,2,2,31,43,4,3,4,1,1,2.0,1.0,3.92,153.4,4.191,1,1.0,102
5,2,58,1,2,3,50,32,2,5,2,1,1,2.0,1.0,4.04,157.44,2.719,1,1.0,102
5,2,59,1,2,4,37,44,2,3,2,1,1,2.0,1.0,3.88,161.32,1.528,1,1.0,102
5,2,60,1,2,5,17,28,2,5,2,1,1,2.0,1.0,4.0,165.32,1.173,1,1.0,102
5,2,61,1,1,1,42,5,3,4,4,2,1,2.0,1.0,3.99,169.31,4.848,1,2.0,102
5,2,62,1,1,2,17,4,5,3,3,2,1,2.0,1.0,4.0,173.31,1.833,1,1.0,102
5,2,63,1,1,3,23,52,5,2,2,2,1,2.0,1.0,3.96,177.27,2.559,1,1.0,102
5,2,64,1,1,4,39,13,4,5,5,2,1,2.0,1.0,4.13,181.4,3.414,1,1.0,102
5,2,65,1,1,5,11,20,3,5,5,2,1,2.0,1.0,3.78,185.18,1.471,1,1.0,102
5,2,66,1,1,6,11,19,5,2,2,2,1,2.0,1.0,4.05,189.23,2.661,1,1.0,102
5,2,67,1,2,1,46,37,2,3,2,1,1,2.0,1.0,4.11,193.34,2.143,1,2.0,102
5,2,68,1,2,2,47,6,2,4,2,1,1,2.0,1.0,4.09,197.43,1.852,1,1.0,102
5,2,69,1,1,1,50,22,4,5,5,2,1,2.0,1.0,4.07,201.5,2.22,1,2.0,102
5,2,70,1,1,2,17,26,4,5,4,1,1,1.0,2.0,2.02,203.52,1.997,0,2.0,102
5,2,71,1,1,3,2,39,4,2,2,2,1,2.0,1.0,4.08,207.6,3.833,1,2.0,102
5,2,72,1,2,1,38,19,4,3,3,2,1,1.0,2.0,2.27,209.87,2.623,0,1.0,102
5,2,73,1,2,2,26,3,3,5,3,1,1,2.0,1.0,3.97,213.84,2.449,1,2.0,102
5,2,74,1,2,3,1,14,2,5,2,1,1,2.0,1.0,3.96,217.8,3.694,1,1.0,102
5,2,75,1,2,4,25,38,5,3,5,1,1,2.0,1.0,3.97,221.77,2.247,1,1.0,102
5,2,76,1,1,1,49,17,2,5,2,1,1,1.0,2.0,1.3,223.07,3.896,0,1.0,102
5,2,77,1,2,1,36,11,2,4,2,1,1,2.0,1.0,3.97,227.04,4.063,1,1.0,102
5,2,78,1,2,2,20,44,3,5,3,1,1,2.0,1.0,4.01,231.05,2.28,1,1.0,102
5,2,79,1,2,3,33,40,3,5,3,1,1,2.0,1.0,4.04,235.09,3.118,1,1.0,102
5,2,80,1,2,4,6,14,2,4,2,1,1,2.0,1.0,4.17,239.26,1.791,1,1.0,102
5,2,81,1,2,5,30,42,3,2,3,1,1,2.0,1.0,3.96,243.22,2.822,1,1.0,102
5,2,82,1,2,6,6,11,3,5,3,1,1,2.0,1.0,4.07,247.29,3.863,1,1.0,102
5,2,83,1,1,1,34,8,4,5,5,2,1,2.0,1.0,4.09,251.38,2.215,1,2.0,102
5,2,84,1,1,2,27,19,2,4,4,2,1,2.0,1.0,4.11,255.49,3.823,1,1.0,102
5,2,1,2,2,1,21,36,3,4,3,1,1,2.0,1.0,3.88,259.37,2.006,1,,102
5,2,2,2,2,2,16,47,5,2,5,1,1,2.0,1.0,4.02,263.39,3.206,1,1.0,102
5,2,3,2,1,1,41,29,2,5,5,2,1,2.0,1.0,4.03,267.42,2.696,1,2.0,102
5,2,4,2,1,2,43,2,2,3,3,2,1,2.0,1.0,3.88,271.3,2.785,1,1.0,102
5,2,5,2,1,3,39,2,5,3,3,2,1,2.0,1.0,3.91,275.21,1.391,1,1.0,102
5,2,6,2,1,4,17,36,5,2,5,1,1,1.0,2.0,2.51,277.72,1.727,0,2.0,102
5,2,7,2,1,5,36,48,4,5,5,2,1,2.0,1.0,3.98,281.7,2.932,1,2.0,102
5,2,8,2,2,1,46,49,5,4,5,1,1,2.0,1.0,4.05,285.75,2.271,1,2.0,102
5,2,9,2,2,2,42,39,5,3,5,1,1,2.0,1.0,4.01,289.76,4.84,1,1.0,102
5,2,10,2,2,3,17,40,2,5,2,1,1,2.0,1.0,3.93,293.69,2.631,1,1.0,102
5,2,11,2,1,1,54,31,3,5,3,1,1,1.0,2.0,1.74,295.43,3.933,0,1.0,102
5,2,12,2,1,2,5,13,4,3,3,2,1,2.0,1.0,4.05,299.48,3.418,1,2.0,102
5,2,14,2,2,2,25,48,4,3,4,1,1,2.0,1.0,3.89,303.37,2.911,1,,102
5,2,15,2,2,3,40,17,3,2,3,1,1,2.0,1.0,4.09,307.46,5.654,1,1.0,102
5,2,16,2,2,4,49,10,3,2,3,1,1,2.0,1.0,4.07,311.53,3.559,1,1.0,102
5,2,17,2,2,5,13,15,4,5,4,1,1,2.0,1.0,3.9,315.43,3.606,1,1.0,102
5,2,18,2,2,6,46,16,2,4,2,1,1,2.0,1.0,3.97,319.4,2.313,1,1.0,102
5,2,19,2,1,1,28,1,4,2,2,2,1,2.0,1.0,3.86,323.26,3.432,1,2.0,102
5,2,20,2,2,1,6,10,2,4,2,1,1,2.0,1.0,3.74,327.0,2.334,1,2.0,102
5,2,21,2,1,1,33,10,2,5,5,2,1,2.0,1.0,4.12,331.12,3.183,1,2.0,102
5,2,22,2,1,2,40,12,5,3,3,2,1,2.0,1.0,3.94,335.06,4.119,1,1.0,102
5,2,23,2,1,3,48,41,3,4,4,2,1,2.0,1.0,4.04,339.1,2.176,1,1.0,102
5,2,24,2,1,4,37,45,4,5,5,2,1,2.0,1.0,4.03,343.13,1.663,1,1.0,102
5,2,25,2,1,5,41,17,5,4,4,2,1,2.0,1.0,4.0,347.13,1.222,1,1.0,102
5,2,26,2,1,6,5,33,3,5,5,2,1,2.0,1.0,3.88,351.01,3.329,1,1.0,102
5,2,27,2,2,1,49,48,4,5,5,2,1,1.0,2.0,1.55,352.56,2.344,0,1.0,102
5,2,28,2,2,2,29,1,2,5,2,1,1,2.0,1.0,3.96,356.52,2.999,1,2.0,102
5,2,29,2,2,3,14,25,3,4,3,1,1,2.0,1.0,3.86,360.38,3.126,1,1.0,102
5,2,30,2,2,4,46,7,2,4,2,1,1,2.0,1.0,3.88,364.26,2.327,1,1.0,102
5,2,31,2,2,5,31,7,2,4,2,1,1,2.0,1.0,4.17,368.43,3.679,1,1.0,102
5,2,32,2,1,1,18,23,2,4,4,2,1,2.0,1.0,4.01,372.44,2.256,1,2.0,102
5,2,33,2,1,2,24,3,3,4,4,2,1,2.0,1.0,3.86,376.3,1.261,1,1.0,102
5,2,34,2,1,3,45,42,3,5,5,2,1,2.0,1.0,4.0,380.3,3.878,1,1.0,102
5,2,35,2,1,4,25,9,3,4,4,2,1,2.0,1.0,3.87,384.17,2.063,1,1.0,102
5,2,36,2,2,1,25,15,4,5,4,1,1,2.0,1.0,3.84,388.01,1.894,1,2.0,102
5,2,37,2,2,2,30,40,4,5,4,1,1,2.0,1.0,3.97,391.98,3.239,1,1.0,102
5,2,38,2,2,3,24,42,5,4,5,1,1,2.0,1.0,4.11,396.09,2.534,1,1.0,102
5,2,39,2,2,4,16,4,2,3,2,1,1,2.0,1.0,4.02,400.11,2.591,1,1.0,102
5,2,40,2,1,1,27,17,3,2,2,2,1,2.0,1.0,4.08,404.19,1.761,1,2.0,102
5,2,41,2,1,2,8,14,3,5,5,2,1,2.0,1.0,3.86,408.05,3.584,1,1.0,102
5,2,42,2,1,3,48,3,5,4,4,2,1,2.0,1.0,3.95,412.0,1.382,1,1.0,102
5,2,43,2,2,1,53,38,2,5,2,1,1,2.0,1.0,3.97,415.97,3.974,1,2.0,102
5,2,44,2,2,2,38,54,3,2,3,1,1,2.0,1.0,3.86,419.83,5.415,1,1.0,102
5,2,45,2,2,3,14,29,4,2,4,1,1,2.0,1.0,3.84,423.67,4.832,1,1.0,102
5,2,46,2,2,4,32,42,5,4,5,1,1,2.0,1.0,4.11,427.78,4.2,1,1.0,102
5,2,48,2,1,1,39,28,3,4,3,1,1,1.0,2.0,2.01,429.79,1.711,0,,102
5,2,49,2,1,2,44,9,4,3,3,2,1,2.0,1.0,3.92,433.71,3.189,1,2.0,102
5,2,50,2,1,3,33,31,2,3,3,2,1,2.0,1.0,4.09,437.8,3.321,1,1.0,102
5,2,51,2,1,4,27,9,5,2,2,2,1,2.0,1.0,4.03,441.83,3.334,1,1.0,102
5,2,52,2,1,5,44,31,2,3,2,1,1,1.0,2.0,1.53,443.36,5.174,0,2.0,102
5,2,53,2,2,1,31,37,5,3,3,2,1,1.0,2.0,2.63,445.99,1.593,0,2.0,102
5,2,54,2,2,2,11,51,4,3,4,1,1,2.0,1.0,4.03,450.02,3.006,1,2.0,102
5,2,55,2,1,1,5,27,5,3,3,2,1,2.0,1.0,4.17,454.19,2.719,1,2.0,102
5,2,56,2,1,2,51,24,4,3,3,2,1,2.0,1.0,4.13,458.32,1.656,1,1.0,102
5,2,57,2,2,1,54,2,3,2,3,1,1,2.0,1.0,3.92,462.24,3.632,1,2.0,102
5,2,58,2,2,2,38,45,4,2,4,1,1,2.0,1.0,3.85,466.09,2.302,1,1.0,102
5,2,59,2,2,3,34,54,2,3,2,1,1,2.0,1.0,3.99,470.08,3.968,1,1.0,102
5,2,60,2,1,1,53,22,5,3,5,1,1,1.0,2.0,1.84,471.92,4.615,0,1.0,102
5,2,61,2,1,2,8,14,4,3,3,2,1,2.0,1.0,3.9,475.82,3.99,1,2.0,102
5,2,62,2,1,3,32,43,5,2,2,2,1,2.0,1.0,4.06,479.88,2.271,1,1.0,102
5,2,63,2,1,4,54,23,5,3,3,2,1,2.0,1.0,4.18,484.06,2.677,1,1.0,102
5,2,64,2,1,5,53,10,4,3,3,2,1,2.0,1.0,3.94,488.0,4.28,1,1.0,102
5,2,65,2,1,6,44,13,2,5,5,2,1,2.0,1.0,3.9,491.9,3.792,1,1.0,102
5,2,66,2,2,1,32,28,4,2,4,1,1,2.0,1.0,3.97,495.87,3.359,1,2.0,102
5,2,67,2,2,2,40,33,5,2,5,1,1,2.0,1.0,4.08,499.95,1.839,1,1.0,102
5,2,68,2,2,3,44,47,3,5,3,1,1,2.0,1.0,3.9,503.85,2.146,1,1.0,102
5,2,69,2,2,4,42,50,3,4,3,1,1,2.0,1.0,3.86,507.71,1.776,1,1.0,102
5,2,70,2,1,1,5,18,2,3,3,2,1,2.0,1.0,3.99,511.7,3.709,1,2.0,102
5,2,71,2,2,1,33,40,5,4,5,1,1,2.0,1.0,3.99,515.69,3.551,1,2.0,102
5,2,72,2,2,2,40,14,3,5,3,1,1,2.0,1.0,4.06,519.75,2.111,1,1.0,102
5,2,73,2,2,3,46,38,4,2,4,1,1,2.0,1.0,3.93,523.68,2.622,1,1.0,102
5,2,74,2,2,4,43,9,5,2,5,1,1,2.0,1.0,3.98,527.66,1.703,1,1.0,102
5,2,75,2,2,5,44,6,3,2,3,1,1,2.0,1.0,3.95,531.61,2.351,1,1.0,102
5,2,77,2,1,1,41,25,4,5,5,2,1,2.0,1.0,3.99,535.6,1.75,1,,102
5,2,78,2,1,2,35,16,2,4,4,2,1,2.0,1.0,4.18,539.78,4.893,1,1.0,102
5,2,79,2,1,3,2,52,2,3,3,2,1,2.0,1.0,3.93,543.71,3.966,1,1.0,102
5,2,80,2,1,4,30,5,3,5,5,2,1,2.0,1.0,3.84,547.55,1.716,1,1.0,102
5,2,81,2,2,1,46,11,4,2,4,1,1,2.0,1.0,4.06,551.61,6.862,1,2.0,102
5,2,82,2,1,1,26,38,5,2,2,2,1,2.0,1.0,3.89,555.5,3.054,1,2.0,102
5,2,83,2,1,2,44,48,2,5,5,2,1,2.0,1.0,4.0,559.5,2.92,1,1.0,102
5,2,84,2,1,3,11,43,5,4,4,2,1,2.0,1.0,3.93,563.43,2.319,1,1.0,102
5,2,1,3,1,1,32,44,2,4,4,2,1,2.0,1.0,4.06,567.49,5.207,1,,102
5,2,2,3,1,2,30,6,5,2,2,2,1,2.0,1.0,4.07,571.56,1.533,1,1.0,102
5,2,3,3,1,3,19,53,2,4,4,2,1,2.0,1.0,3.98,575.54,2.728,1,1.0,102
5,2,4,3,2,1,3,40,2,3,2,1,1,2.0,1.0,3.76,579.3,3.974,1,2.0,102
5,2,5,3,2,2,26,12,4,5,4,1,1,2.0,1.0,4.02,583.32,2.782,1,1.0,102
5,2,6,3,2,3,7,24,3,4,3,1,1,2.0,1.0,4.19,587.51,2.361,1,1.0,102
5,2,7,3,1,1,14,13,3,4,4,2,1,2.0,1.0,4.12,591.63,3.775,1,2.0,102
5,2,8,3,1,2,17,33,5,2,2,2,1,2.0,1.0,3.81,595.44,3.542,1,1.0,102
5,2,9,3,1,3,20,41,3,4,4,2,1,2.0,1.0,3.99,599.43,4.007,1,1.0,102
5,2,10,3,1,4,35,33,4,3,3,2,1,2.0,1.0,3.92,603.35,4.374,1,1.0,102
5,2,11,3,1,5,52,16,3,5,5,2,1,2.0,1.0,3.88,607.23,3.477,1,1.0,102
5,2,12,3,2,1,14,8,2,5,2,1,1,2.0,1.0,3.85,611.08,3.127,1,2.0,102
5,2,13,3,1,1,3,28,5,3,3,2,1,2.0,1.0,4.03,615.11,2.79,1,2.0,102
5,2,14,3,1,2,14,20,3,5,5,2,1,2.0,1.0,3.95,619.06,1.911,1,1.0,102
5,2,15,3,2,1,41,3,2,3,2,1,1,2.0,1.0,4.01,623.07,2.623,1,2.0,102
5,2,16,3,2,2,21,25,4,5,4,1,1,2.0,1.0,3.96,627.03,1.679,1,1.0,102
5,2,17,3,2,3,21,16,4,3,4,1,1,2.0,1.0,3.95,630.98,1.367,1,1.0,102
5,2,18,3,2,4,15,31,4,2,4,1,1,2.0,1.0,4.04,635.02,4.183,1,1.0,102
5,2,19,3,2,5,18,33,3,2,3,1,1,2.0,1.0,4.09,639.11,4.334,1,1.0,102
5,2,20,3,2,6,49,33,5,4,5,1,1,2.0,1.0,4.25,643.36,2.261,1,1.0,102
5,2,21,3,1,1,22,49,4,3,4,1,1,1.0,2.0,1.36,644.72,2.56,0,1.0,102
5,2,22,3,2,1,17,34,5,4,5,1,1,2.0,1.0,3.88,648.6,4.198,1,1.0,102
5,2,23,3,2,2,54,6,4,2,4,1,1,2.0,1.0,4.12,652.72,3.631,1,1.0,102
5,2,24,3,1,1,33,7,3,4,4,2,1,2.0,1.0,3.95,656.67,1.959,1,2.0,102
5,2,25,3,1,2,4,48,3,5,5,2,1,2.0,1.0,3.84,660.51,2.552,1,1.0,102
5,2,26,3,1,3,33,46,2,3,3,2,1,2.0,1.0,4.04,664.55,3.079,1,1.0,102
5,2,27,3,1,4,24,16,5,4,4,2,1,2.0,1.0,4.18,668.73,3.534,1,1.0,102
5,2,28,3,2,1,13,27,3,2,3,1,1,2.0,1.0,4.08,672.81,4.485,1,2.0,102
5,2,29,3,2,2,49,1,2,5,2,1,1,2.0,1.0,4.23,677.04,3.017,1,1.0,102
5,2,30,3,2,3,13,7,3,5,3,1,1,2.0,1.0,4.06,681.1,3.529,1,1.0,102
5,2,31,3,2,4,54,39,4,3,4,1,1,2.0,1.0,4.22,685.32,3.861,1,1.0,102
5,2,32,3,1,1,7,3,4,2,2,2,1,2.0,1.0,3.96,689.28,1.623,1,2.0,102
5,2,33,3,1,2,35,1,3,4,4,2,1,2.0,1.0,3.87,693.15,3.611,1,1.0,102
5,2,34,3,1,3,3,26,3,4,3,1,1,1.0,2.0,1.9,695.05,2.446,0,2.0,102
5,2,35,3,1,4,52,53,5,3,3,2,1,2.0,1.0,4.14,699.19,3.255,1,2.0,102
5,2,36,3,1,5,53,15,5,4,4,2,1,2.0,1.0,3.87,703.06,4.192,1,1.0,102
5,2,37,3,1,6,48,23,3,2,2,2,1,2.0,1.0,4.07,707.13,1.67,1,1.0,102
5,2,38,3,2,1,41,31,3,5,5,2,1,1.0,2.0,1.72,708.85,4.098,0,1.0,102
5,2,39,3,2,2,8,31,2,5,2,1,1,2.0,1.0,4.06,712.91,1.807,1,2.0,102
5,2,40,3,2,3,9,49,5,2,2,2,1,1.0,2.0,1.48,714.39,2.879,0,2.0,102
5,2,41,3,2,4,45,13,2,4,2,1,1,2.0,1.0,4.01,718.4,3.824,1,2.0,102
5,2,42,3,2,5,9,29,3,5,3,1,1,2.0,1.0,3.76,722.16,3.949,1,1.0,102
5,2,44,3,1,2,3,49,4,5,4,1,1,1.0,2.0,2.22,726.15,1.564,0,1.0,102
5,2,45,3,1,3,51,50,3,2,2,2,1,2.0,1.0,3.96,730.11,2.535,1,2.0,102
5,2,46,3,1,4,12,26,5,2,2,2,1,2.0,1.0,4.15,734.26,2.532,1,1.0,102
5,2,47,3,1,5,38,3,2,5,5,2,1,2.0,1.0,3.93,738.19,4.256,1,1.0,102
5,2,48,3,1,6,3,11,5,3,3,2,1,2.0,1.0,3.73,741.92,2.826,1,1.0,102
5,2,49,3,2,1,15,51,2,3,2,1,1,2.0,1.0,3.85,745.77,3.888,1,2.0,102
5,2,50,3,2,2,8,31,5,3,5,1,1,2.0,1.0,4.12,749.89,2.263,1,1.0,102
5,2,51,3,1,1,20,19,5,4,4,2,1,2.0,1.0,3.99,753.88,2.046,1,2.0,102
5,2,52,3,1,2,11,25,4,2,2,2,1,2.0,1.0,4.04,757.92,2.215,1,1.0,102
5,2,53,3,1,3,23,17,4,3,3,2,1,2.0,1.0,4.11,762.03,4.991,1,1.0,102
5,2,54,3,1,4,28,33,4,2,2,2,1,2.0,1.0,3.75,765.78,4.375,1,1.0,102
5,2,55,3,1,5,5,32,5,3,3,2,1,2.0,1.0,3.92,769.7,3.119,1,1.0,102
5,2,56,3,2,1,41,4,2,3,3,2,1,1.0,2.0,1.67,771.37,1.182,0,1.0,102
5,2,57,3,2,2,48,42,3,2,3,1,1,2.0,1.0,3.88,775.25,2.607,1,2.0,102
5,2,58,3,2,3,1,45,2,4,2,1,1,2.0,1.0,3.98,779.23,2.792,1,1.0,102
5,2,59,3,1,1,28,51,2,4,4,2,1,2.0,1.0,4.18,783.41,4.288,1,2.0,102
5,2,60,3,2,1,26,49,4,5,4,1,1,2.0,1.0,4.0,787.41,2.422,1,2.0,102
5,2,61,3,1,1,44,5,3,4,4,2,1,2.0,1.0,4.14,791.55,2.038,1,2.0,102
5,2,62,3,1,2,24,35,4,3,3,2,1,2.0,1.0,3.92,795.47,3.741,1,1.0,102
5,2,63,3,2,1,40,22,5,4,4,2,1,1.0,2.0,2.0,797.47,2.347,0,1.0,102
5,2,64,3,2,2,51,30,5,4,5,1,1,2.0,1.0,3.91,801.38,3.566,1,2.0,102
5,2,65,3,2,3,49,16,4,5,4,1,1,2.0,1.0,4.07,805.45,2.175,1,1.0,102
5,2,66,3,2,4,48,45,4,5,4,1,1,2.0,1.0,3.97,809.42,2.974,1,1.0,102
5,2,67,3,2,5,3,48,4,3,4,1,1,2.0,1.0,4.06,813.48,1.607,1,1.0,102
5,2,68,3,1,1,31,49,3,2,2,2,1,2.0,1.0,4.08,817.56,3.424,1,2.0,102
5,2,69,3,1,2,37,15,5,2,2,2,1,2.0,1.0,3.99,821.55,1.51,1,1.0,102
5,2,70,3,1,3,54,20,2,4,4,2,1,2.0,1.0,4.1,825.65,2.438,1,1.0,102
5,2,71,3,2,1,5,24,2,5,2,1,1,2.0,1.0,4.27,829.92,1.871,1,2.0,102
5,2,72,3,2,2,16,6,2,3,3,2,1,1.0,2.0,2.25,832.17,1.096,0,2.0,102
5,2,73,3,2,3,36,8,5,2,5,1,1,2.0,1.0,4.0,836.17,3.002,1,2.0,102
5,2,74,3,2,4,18,20,5,2,2,2,1,1.0,2.0,2.43,838.6,1.528,0,2.0,102
5,2,75,3,2,5,44,16,3,2,3,1,1,2.0,1.0,4.01,842.61,2.287,1,2.0,102
5,2,76,3,2,6,25,40,5,3,5,1,1,2.0,1.0,3.87,846.48,2.391,1,1.0,102
5,2,77,3,1,1,53,13,5,3,5,1,1,1.0,2.0,2.23,848.71,3.458,0,1.0,102
5,2,78,3,1,2,2,52,4,2,2,2,1,2.0,1.0,4.0,852.71,3.086,1,2.0,102
5,2,79,3,1,3,23,37,2,4,4,2,1,2.0,1.0,3.97,856.68,1.733,1,1.0,102
5,2,80,3,1,4,53,30,3,5,3,1,1,1.0,2.0,2.6,859.28,3.944,0,2.0,102
5,2,81,3,2,1,9,39,2,5,2,1,1,2.0,1.0,4.22,863.5,6.543,1,1.0,102
5,2,82,3,2,2,46,33,2,5,5,2,1,1.0,2.0,1.75,865.25,5.081,0,2.0,102
5,2,83,3,2,3,40,21,4,2,4,1,1,2.0,1.0,4.01,869.26,1.595,1,2.0,102
5,2,84,3,2,4,48,13,2,3,2,1,1,2.0,1.0,3.9,873.16,3.5,1,1.0,102
5,2,1,4,2,1,7,36,5,4,5,1,1,2.0,1.0,4.08,877.24,1.59,1,,102
5,2,2,4,1,1,16,19,3,4,4,2,1,2.0,1.0,3.72,880.96,2.927,1,2.0,102
5,2,3,4,1,2,8,2,4,5,5,2,1,2.0,1.0,4.12,885.08,2.815,1,1.0,102
5,2,4,4,2,1,6,17,4,3,3,2,1,1.0,2.0,2.1,887.18,5.817,0,1.0,102
5,2,5,4,2,2,26,13,5,3,3,2,1,1.0,2.0,2.12,889.3,4.326,0,1.0,102
5,2,6,4,2,3,47,15,2,5,2,1,1,2.0,1.0,4.14,893.44,2.535,1,2.0,102
5,2,7,4,2,4,47,31,2,4,2,1,1,2.0,1.0,3.97,897.41,2.541,1,1.0,102
5,2,8,4,1,1,13,17,4,3,4,1,1,1.0,2.0,1.94,899.35,3.572,0,1.0,102
5,2,9,4,1,2,26,51,2,5,2,1,1,1.0,2.0,1.4,900.75,3.38,0,1.0,102
5,2,10,4,1,3,35,6,4,5,5,2,1,2.0,1.0,3.8,904.55,1.495,1,2.0,102
5,2,11,4,1,4,51,32,2,4,4,2,1,2.0,1.0,3.92,908.47,3.647,1,1.0,102
5,2,12,4,1,5,15,47,2,4,4,2,1,2.0,1.0,4.03,912.5,1.881,1,1.0,102
5,2,13,4,1,6,6,42,4,2,2,2,1,2.0,1.0,3.94,916.44,3.78,1,1.0,102
5,2,14,4,2,1,35,46,5,2,2,2,1,1.0,2.0,1.37,917.81,2.104,0,1.0,102
5,2,15,4,2,2,8,41,5,2,5,1,1,2.0,1.0,4.13,921.94,2.854,1,2.0,102
5,2,16,4,2,3,13,39,2,5,2,1,1,2.0,1.0,3.92,925.86,3.521,1,1.0,102
5,2,17,4,1,1,49,48,3,4,4,2,1,2.0,1.0,4.0,929.86,2.685,1,2.0,102
5,2,18,4,1,2,54,33,2,4,4,2,1,2.0,1.0,4.0,933.86,4.272,1,1.0,102
5,2,19,4,1,3,27,36,4,3,3,2,1,2.0,1.0,3.97,937.83,4.726,1,1.0,102
5,2,20,4,1,4,26,13,2,3,3,2,1,2.0,1.0,4.05,941.88,3.064,1,1.0,102
5,2,21,4,1,5,29,34,4,3,3,2,1,2.0,1.0,3.97,945.85,3.631,1,1.0,102
5,2,23,4,2,2,34,49,3,2,3,1,1,2.0,1.0,3.88,950.95,3.151,1,2.0,102
5,2,24,4,1,1,26,52,2,5,2,1,1,1.0,2.0,2.11,953.06,2.822,0,1.0,102
5,2,25,4,2,1,50,15,2,3,2,1,1,2.0,1.0,3.85,956.91,2.777,1,1.0,102
5,2,26,4,2,2,11,23,5,4,5,1,1,2.0,1.0,3.96,960.87,2.574,1,1.0,102
5,2,27,4,2,3,23,46,5,2,2,2,1,1.0,2.0,1.56,962.43,5.486,0,2.0,102
5,2,28,4,2,4,3,11,3,5,3,1,1,2.0,1.0,3.86,966.29,3.775,1,2.0,102
5,2,29,4,2,5,25,46,4,2,4,1,1,2.0,1.0,3.88,970.17,2.249,1,1.0,102
5,2,30,4,2,6,13,1,4,2,4,1,1,2.0,1.0,3.95,974.12,3.18,1,1.0,102
5,2,32,4,1,2,28,40,5,2,5,1,1,1.0,2.0,1.95,978.15,7.496,0,1.0,102
5,2,33,4,1,3,2,7,5,3,3,2,1,2.0,1.0,4.13,982.28,4.614,1,2.0,102
5,2,34,4,2,1,5,42,3,2,3,1,1,2.0,1.0,3.97,986.25,6.663,1,2.0,102
5,2,35,4,2,2,31,16,2,4,2,1,1,2.0,1.0,3.82,990.07,4.536,1,1.0,102
5,2,36,4,2,3,31,19,4,2,4,1,1,2.0,1.0,4.0,994.07,2.862,1,1.0,102
5,2,37,4,2,4,7,12,4,2,4,1,1,2.0,1.0,4.01,998.08,1.949,1,1.0,102
5,2,38,4,2,5,38,2,5,4,5,1,1,2.0,1.0,4.04,1002.12,4.934,1,1.0,102
5,2,39,4,1,1,50,23,5,3,3,2,1,2.0,1.0,4.06,1006.18,2.614,1,2.0,102
5,2,40,4,1,2,35,47,4,5,5,2,1,2.0,1.0,4.15,1010.33,7.135,1,1.0,102
5,2,41,4,1,3,41,33,3,2,2,2,1,2.0,1.0,3.94,1014.27,2.766,1,1.0,102
5,2,42,4,1,4,10,6,3,4,4,2,1,2.0,1.0,4.03,1018.3,2.973,1,1.0,102
5,2,43,4,2,1,26,41,3,4,3,1,1,2.0,1.0,4.0,1022.3,5.005,1,2.0,102
5,2,44,4,1,1,12,33,5,3,3,2,1,2.0,1.0,3.93,1026.23,3.192,1,2.0,102
5,2,46,4,1,3,54,13,2,4,4,2,1,2.0,1.0,4.25,1030.48,2.803,1,,102
5,2,47,4,1,4,47,25,4,5,5,2,1,2.0,1.0,3.97,1034.45,1.853,1,1.0,102
5,2,48,4,1,5,32,52,5,2,2,2,1,2.0,1.0,3.83,1038.28,3.533,1,1.0,102
5,2,49,4,2,1,29,43,3,5,5,2,1,1.0,2.0,2.83,1041.11,1.783,0,1.0,102
5,2,50,4,2,2,49,9,5,3,5,1,1,2.0,1.0,4.04,1045.15,2.04,1,2.0,102
5,2,51,4,2,3,43,16,4,2,4,1,1,2.0,1.0,3.87,1049.02,5.04,1,1.0,102
5,2,52,4,1,1,46,47,3,2,3,1,1,1.0,2.0,2.29,1051.31,4.416,0,1.0,102
5,2,53,4,1,2,25,12,5,2,5,1,1,1.0,2.0,2.6,1053.91,3.023,0,1.0,102
5,2,54,4,1,3,8,6,2,5,5,2,1,2.0,1.0,3.89,1057.8,2.316,1,2.0,102
5,2,55,4,1,4,38,51,2,3,3,2,1,2.0,1.0,4.02,1061.82,8.399,1,1.0,102
5,2,56,4,2,1,46,8,2,4,2,1,1,2.0,1.0,3.98,1065.8,1.671,1,2.0,102
5,2,57,4,2,2,54,35,3,4,3,1,1,2.0,1.0,3.86,1069.66,2.548,1,1.0,102
5,2,58,4,2,3,38,23,5,4,5,1,1,2.0,1.0,4.14,1073.8,4.654,1,1.0,102
5,2,59,4,2,4,18,49,5,3,5,1,1,2.0,1.0,4.0,1077.8,3.277,1,1.0,102
5,2,60,4,2,5,24,39,2,5,2,1,1,2.0,1.0,4.06,1081.86,2.149,1,1.0,102
5,2,61,4,1,1,36,17,5,2,2,2,1,2.0,1.0,3.92,1085.78,3.584,1,2.0,102
5,2,62,4,1,2,31,19,2,3,3,2,1,2.0,1.0,3.92,1089.7,2.127,1,1.0,102
5,2,63,4,1,3,6,41,4,3,3,2,1,2.0,1.0,4.04,1093.74,2.726,1,1.0,102
5,2,64,4,1,4,13,47,3,5,5,2,1,2.0,1.0,4.01,1097.75,2.407,1,1.0,102
5,2,65,4,1,5,22,32,4,5,5,2,1,2.0,1.0,4.22,1101.97,4.518,1,1.0,102
5,2,66,4,1,6,13,21,4,2,2,2,1,2.0,1.0,3.97,1105.94,1.698,1,1.0,102
5,2,67,4,2,1,42,11,3,5,5,2,1,1.0,2.0,3.04,1108.98,4.081,0,1.0,102
5,2,68,4,2,2,47,49,3,4,3,1,1,2.0,1.0,4.18,1113.16,3.268,1,2.0,102
5,2,69,4,1,1,33,10,3,2,2,2,1,2.0,1.0,3.77,1116.93,2.359,1,2.0,102
5,2,70,4,1,2,12,54,2,3,3,2,1,2.0,1.0,3.8,1120.73,3.773,1,1.0,102
5,2,71,4,1,3,46,51,3,2,2,2,1,2.0,1.0,3.93,1124.66,2.622,1,1.0,102
5,2,72,4,2,1,5,9,5,4,4,2,1,1.0,2.0,1.91,1126.57,2.663,0,1.0,102
5,2,73,4,2,2,13,19,2,3,2,1,1,2.0,1.0,4.0,1130.57,4.727,1,2.0,102
5,2,74,4,2,3,40,33,4,5,4,1,1,2.0,1.0,4.1,1134.67,2.625,1,1.0,102
5,2,75,4,2,4,38,37,4,3,4,1,1,2.0,1.0,3.91,1138.58,3.791,1,1.0,102
5,2,76,4,1,1,10,19,2,3,3,2,1,2.0,1.0,3.91,1142.49,4.391,1,2.0,102
5,2,78,4,2,2,31,21,5,4,5,1,1,2.0,1.0,4.0,1150.47,3.246,1,1.0,102
5,2,79,4,2,3,50,38,3,5,3,1,1,2.0,1.0,4.03,1154.5,4.647,1,1.0,102
5,2,80,4,2,4,32,26,3,5,3,1,1,2.0,1.0,4.12,1158.62,3.416,1,1.0,102
5,2,81,4,2,5,2,39,4,3,4,1,1,2.0,1.0,4.07,1162.69,1.963,1,1.0,102
5,2,82,4,2,6,39,3,3,4,4,2,1,1.0,2.0,1.17,1163.86,3.536,0,2.0,102
5,2,83,4,1,1,6,40,3,2,2,2,1,2.0,1.0,4.08,1167.94,1.37,1,1.0,102
5,2,84,4,1,2,46,29,2,5,5,2,1,2.0,1.0,4.1,1172.04,2.946,1,1.0,102
6,3,1,1,2,1,38,15,3,5,5,2,1,2.0,1.0,3.95,3.95,3.934,0,,103
6,3,2,1,2,2,28,7,5,3,3,2,1,2.0,1.0,3.8,7.75,2.736,0,1.0,103
6,3,3,1,2,3,50,34,2,4,4,2,1,2.0,1.0,4.01,11.76,1.352,0,1.0,103
6,3,4,1,2,4,27,34,4,3,3,2,1,2.0,1.0,4.03,15.79,1.159,0,1.0,103
6,3,5,1,2,5,14,13,3,4,4,2,1,2.0,1.0,3.86,19.65,3.454,0,1.0,103
6,3,7,1,1,1,7,34,2,3,3,2,1,1.0,2.0,2.56,22.21,1.698,1,,103
6,3,8,1,1,2,4,21,4,5,5,2,1,1.0,2.0,2.56,24.77,3.003,1,1.0,103
6,3,9,1,1,3,6,35,2,3,3,2,1,1.0,2.0,1.98,26.75,1.657,1,1.0,103
6,3,10,1,1,4,31,43,2,4,4,2,1,1.0,2.0,2.15,28.9,3.452,1,1.0,103
6,3,11,1,2,1,20,24,3,4,4,2,1,2.0,1.0,4.02,32.92,4.455,0,1.0,103
6,3,12,1,2,2,48,30,5,4,4,2,1,2.0,1.0,3.98,36.9,1.162,0,1.0,103
6,3,14,1,1,2,4,35,3,4,4,2,1,1.0,2.0,2.34,39.24,1.232,1,,103
6,3,15,1,1,3,51,4,5,2,2,2,1,1.0,2.0,1.72,40.96,1.46,1,1.0,103
6,3,16,1,2,1,13,46,3,2,2,2,1,2.0,1.0,4.26,45.22,4.775,0,1.0,103
6,3,18,1,2,3,4,10,2,3,3,2,1,2.0,1.0,4.01,53.21,1.639,0,1.0,103
6,3,19,1,2,4,52,8,2,5,5,2,1,2.0,1.0,4.13,57.34,2.379,0,1.0,103
6,3,20,1,2,5,1,8,5,3,3,2,1,2.0,1.0,4.01,61.35,3.13,0,1.0,103
6,3,21,1,1,1,42,9,2,4,4,2,1,1.0,2.0,1.95,63.3,1.402,1,1.0,103
6,3,22,1,1,2,24,25,3,5,5,2,1,1.0,2.0,1.61,64.91,1.879,1,1.0,103
6,3,23,1,1,3,40,21,4,3,3,2,1,1.0,2.0,2.14,67.05,2.266,1,1.0,103
6,3,24,1,1,4,18,48,5,3,3,2,1,1.0,2.0,1.37,68.42,2.317,1,1.0,103
6,3,25,1,1,5,2,35,3,2,2,2,1,1.0,2.0,2.34,70.76,4.453,1,1.0,103
6,3,26,1,1,6,31,1,3,4,4,2,1,1.0,2.0,2.77,73.53,1.544,1,1.0,103
6,3,27,1,2,1,33,30,4,3,3,2,1,2.0,1.0,3.92,77.45,4.592,0,1.0,103
6,3,28,1,2,2,33,21,2,4,4,2,1,2.0,1.0,4.1,81.55,2.99,0,1.0,103
6,3,29,1,2,3,8,33,4,3,3,2,1,2.0,1.0,4.15,85.7,1.708,0,1.0,103
6,3,30,1,2,4,32,28,2,5,5,2,1,2.0,1.0,3.81,89.51,2.285,0,1.0,103
6,3,31,1,1,1,20,8,4,5,5,2,1,1.0,2.0,1.32,90.83,2.711,1,1.0,103
6,3,32,1,1,2,2,35,2,3,3,2,1,1.0,2.0,2.27,93.1,3.297,1,1.0,103
6,3,34,1,1,1,26,40,2,5,5,2,1,1.0,2.0,2.33,99.38,2.933,1,1.0,103
6,3,36,1,2,2,35,39,3,2,2,2,1,2.0,1.0,4.08,107.56,2.287,0,1.0,103
6,3,37,1,2,3,25,43,2,5,5,2,1,2.0,1.0,4.15,111.71,6.617,0,1.0,103
6,3,38,1,1,1,2,10,3,4,4,2,1,1.0,2.0,2.32,114.03,2.301,1,1.0,103
6,3,39,1,1,2,37,38,2,4,4,2,1,1.0,2.0,2.56,116.59,1.782,1,1.0,103
6,3,40,1,1,3,40,22,5,2,2,2,1,1.0,2.0,1.43,118.02,1.26,1,1.0,103
6,3,41,1,1,4,3,33,4,3,3,2,1,1.0,2.0,1.99,120.01,1.287,1,1.0,103
6,3,42,1,1,5,51,53,4,2,2,2,1,1.0,2.0,1.93,121.94,2.401,1,1.0,103
6,3,43,1,2,1,10,42,4,5,5,2,1,2.0,1.0,3.81,125.75,3.655,0,1.0,103
6,3,44,1,2,2,29,5,3,2,2,2,1,2.0,1.0,4.03,129.78,2.706,0,1.0,103
6,3,45,1,2,3,45,33,3,5,5,2,1,2.0,1.0,3.88,133.66,3.011,0,1.0,103
6,3,46,1,1,1,48,14,4,3,3,2,1,1.0,2.0,2.67,136.33,1.816,1,1.0,103
6,3,47,1,1,2,36,49,2,5,5,2,1,1.0,2.0,1.62,137.95,2.325,1,1.0,103
6,3,48,1,1,3,38,22,3,5,5,2,1,1.0,2.0,2.25,140.2,3.061,1,1.0,103
6,3,49,1,1,4,17,2,4,2,2,2,1,1.0,2.0,2.1,142.3,1.12,1,1.0,103
6,3,50,1,2,1,34,28,4,5,5,2,1,2.0,1.0,3.89,146.19,4.042,0,1.0,103
6,3,51,1,2,2,25,48,3,5,5,2,1,2.0,1.0,3.74,149.93,2.565,0,1.0,103
6,3,52,1,2,3,14,29,3,2,2,2,1,2.0,1.0,3.99,153.92,3.14,0,1.0,103
6,3,53,1,2,4,21,27,5,3,3,2,1,2.0,1.0,3.88,157.8,5.3,0,1.0,103
6,3,54,1,2,5,22,32,4,5,5,2,1,2.0,1.0,4.07,161.87,4.957,0,1.0,103
6,3,55,1,2,6,2,53,5,4,4,2,1,2.0,1.0,4.06,165.93,1.78,0,1.0,103
6,3,56,1,1,1,22,14,3,4,4,2,1,1.0,2.0,2.8,168.73,1.29,1,1.0,103
6,3,58,1,1,3,28,18,5,4,4,2,1,1.0,2.0,2.28,171.01,0.994,1,,103
6,3,59,1,1,4,19,23,2,3,3,2,1,1.0,2.0,1.7,172.71,2.72,1,1.0,103
6,3,60,1,1,5,12,52,4,5,5,2,1,1.0,2.0,2.18,174.89,1.192,1,1.0,103
6,3,61,1,1,6,23,47,2,3,3,2,1,1.0,2.0,1.52,176.41,3.023,1,1.0,103
6,3,63,1,2,2,3,5,3,2,2,2,1,2.0,1.0,3.99,184.4,1.75,0,1.0,103
6,3,65,1,2,4,18,14,2,4,4,2,1,2.0,1.0,3.96,192.36,1.888,0,1.0,103
6,3,66,1,1,1,12,29,4,3,3,2,1,1.0,2.0,2.52,194.88,3.225,1,1.0,103
6,3,67,1,1,2,52,4,4,2,2,2,1,1.0,2.0,1.12,196.0,2.31,1,1.0,103
6,3,68,1,2,1,20,33,3,4,4,2,1,2.0,1.0,4.05,200.05,1.864,0,1.0,103
6,3,69,1,1,1,6,13,2,3,3,2,1,1.0,2.0,2.42,202.47,3.675,1,1.0,103
6,3,70,1,1,2,53,9,5,4,4,2,1,1.0,2.0,2.34,204.81,1.909,1,1.0,103
6,3,72,1,2,1,39,7,5,2,2,2,1,2.0,1.0,4.07,208.88,1.149,0,,103
6,3,73,1,2,2,1,27,5,2,2,2,1,2.0,1.0,4.0,212.88,1.396,0,1.0,103
6,3,74,1,1,1,8,25,5,3,3,2,1,1.0,2.0,2.32,215.2,2.345,1,1.0,103
6,3,75,1,2,1,31,4,5,4,4,2,1,2.0,1.0,4.07,219.27,4.249,0,1.0,103
6,3,76,1,2,2,21,39,4,2,2,2,1,2.0,1.0,3.97,223.24,2.125,0,1.0,103
6,3,77,1,2,3,8,16,3,5,5,2,1,2.0,1.0,3.96,227.2,4.237,0,1.0,103
6,3,78,1,2,4,26,2,5,4,4,2,1,2.0,1.0,3.97,231.17,0.937,0,1.0,103
6,3,79,1,2,5,5,24,4,2,2,2,1,2.0,1.0,3.83,235.0,3.881,0,1.0,103
6,3,80,1,1,1,6,37,4,2,2,2,1,1.0,2.0,1.89,236.89,2.547,1,1.0,103
6,3,81,1,1,2,36,46,5,2,2,2,1,1.0,2.0,2.06,238.95,1.858,1,1.0,103
6,3,82,1,1,3,31,53,4,5,5,2,1,1.0,2.0,2.15,241.1,2.261,1,1.0,103
6,3,83,1,1,4,3,24,2,4,4,2,1,1.0,2.0,2.68,243.78,2.536,1,1.0,103
6,3,84,1,1,5,20,21,3,5,5,2,1,1.0,2.0,1.83,245.61,1.903,1,1.0,103
6,3,1,2,1,1,44,29,3,2,2,2,1,1.0,2.0,2.29,247.9,1.356,1,,103
6,3,2,2,1,2,18,33,3,4,4,2,1,1.0,2.0,2.38,250.28,2.483,1,1.0,103
6,3,3,2,1,3,44,40,4,3,3,2,1,1.0,2.0,2.44,252.72,3.238,1,1.0,103
6,3,4,2,1,4,17,44,2,5,5,2,1,1.0,2.0,1.53,254.25,2.169,1,1.0,103
6,3,5,2,1,5,48,54,5,4,4,2,1,1.0,2.0,2.1,256.35,2.608,1,1.0,103
6,3,6,2,2,1,30,15,4,5,5,2,1,2.0,1.0,4.03,260.38,1.374,0,1.0,103
6,3,7,2,2,2,36,15,4,5,5,2,1,2.0,1.0,3.88,264.26,0.886,0,1.0,103
6,3,8,2,2,3,48,53,5,3,3,2,1,2.0,1.0,3.91,268.17,2.39,0,1.0,103
6,3,9,2,1,1,48,37,4,3,3,2,1,1.0,2.0,2.51,270.68,1.772,1,1.0,103
6,3,10,2,1,2,15,19,2,3,3,2,1,1.0,2.0,1.94,272.62,1.083,1,1.0,103
6,3,11,2,1,3,22,44,5,4,4,2,1,1.0,2.0,2.18,274.8,3.333,1,1.0,103
6,3,12,2,1,4,9,30,2,4,4,2,1,1.0,2.0,2.04,276.84,1.285,1,1.0,103
6,3,13,2,2,1,12,54,4,3,3,2,1,2.0,1.0,3.93,280.77,1.503,0,1.0,103
6,3,14,2,1,1,39,52,2,5,5,2,1,1.0,2.0,1.74,282.51,1.816,1,1.0,103
6,3,15,2,2,1,2,13,4,2,2,2,1,2.0,1.0,4.05,286.56,1.813,0,1.0,103
6,3,16,2,2,2,41,20,2,4,4,2,1,2.0,1.0,3.89,290.45,4.13,0,1.0,103
6,3,17,2,2,3,45,53,3,2,2,2,1,2.0,1.0,4.09,294.54,5.305,0,1.0,103
6,3,18,2,2,4,1,36,3,5,5,2,1,2.0,1.0,4.07,298.61,2.451,0,1.0,103
6,3,19,2,1,1,4,16,4,5,5,2,1,1.0,2.0,1.61,300.22,1.062,1,1.0,103
6,3,20,2,1,2,21,24,5,4,4,2,1,1.0,2.0,1.87,302.09,2.457,1,1.0,103
6,3,21,2,1,3,40,43,3,4,4,2,1,1.0,2.0,1.44,303.53,2.269,1,1.0,103
6,3,22,2,1,4,1,35,3,2,2,2,1,1.0,2.0,0.96,304.49,1.287,1,1.0,103
6,3,23,2,1,5,38,6,3,5,5,2,1,1.0,2.0,2.46,306.95,2.857,1,1.0,103
6,3,24,2,1,6,8,29,3,5,5,2,1,1.0,2.0,1.76,308.71,1.444,1,1.0,103
6,3,25,2,2,1,13,27,5,2,2,2,1,2.0,1.0,4.04,312.75,2.849,0,1.0,103
6,3,26,2,2,2,29,11,3,2,2,2,1,2.0,1.0,4.03,316.78,1.124,0,1.0,103
6,3,27,2,1,1,27,5,4,2,2,2,1,1.0,2.0,2.01,318.79,1.973,1,1.0,103
6,3,28,2,1,2,30,23,5,4,4,2,1,1.0,2.0,1.53,320.32,2.275,1,1.0,103
6,3,29,2,1,3,35,40,3,4,4,2,1,1.0,2.0,1.55,321.87,3.734,1,1.0,103
6,3,30,2,2,1,27,44,4,2,2,2,1,2.0,1.0,3.96,325.83,3.438,0,1.0,103
6,3,31,2,2,2,14,30,5,4,4,2,1,2.0,1.0,3.86,329.69,3.058,0,1.0,103
6,3,32,2,2,3,22,2,5,3,3,2,1,2.0,1.0,3.88,333.57,1.406,0,1.0,103
6,3,33,2,2,4,47,9,3,4,4,2,1,2.0,1.0,4.17,337.74,1.282,0,1.0,103
6,3,34,2,2,5,30,40,4,2,2,2,1,2.0,1.0,4.01,341.75,2.524,0,1.0,103
