SubNo,"Group(1=OHRHV,SLRLV; 2=OHRLV,SLRHV; 3=OLRHV,SHRLV, 4 = OLRLV,SHRHV)",Block_trial,Block,VarDist_cond,Run_number,Targ1_position,Targ2_position,Red_targ_digit,Blue_targ_digit,Response,Targ_Choice,Acc,RewardOutcome(0=inaccurate;1=lowReward;2=highReward),VarianceOutcome(0=inaccurate; 1=lowVariance; 2=highVariance),OutcomeValue,Points,RT,Optimal_Choice,Repeat_Switch,Original_SubNo
1,1,1,1,2,1,38,13,5,2,5,1,1,2.0,2.0,3.8,3.8,2863,1.0,,1
1,1,2,1,2,2,35,27,3,5,3,1,1,2.0,2.0,3.22,7.02,1745,1.0,1.0,1
1,1,3,1,2,3,11,10,2,5,2,1,1,2.0,2.0,4.06,11.08,3149,1.0,1.0,1
1,1,4,1,2,4,9,46,5,3,5,1,1,2.0,2.0,4.14,15.22,1490,1.0,1.0,1
1,1,5,1,2,5,6,45,2,4,2,1,1,2.0,2.0,3.46,18.68,3945,1.0,1.0,1
1,1,6,1,1,1,50,42,4,2,4,1,1,1.0,1.0,2.14,20.82,2925,0.0,1.0,1
1,1,7,1,1,2,41,50,2,4,2,1,1,1.0,1.0,2.14,22.96,2663,0.0,1.0,1
1,1,8,1,1,3,35,52,5,3,5,1,1,1.0,1.0,2.0,24.96,1388,0.0,1.0,1
1,1,9,1,1,4,24,30,3,4,3,1,1,1.0,1.0,2.04,27.0,4067,0.0,1.0,1
1,1,10,1,1,5,17,5,4,3,4,1,1,1.0,1.0,2.02,29.02,2169,0.0,1.0,1
1,1,11,1,1,6,54,20,5,3,5,1,1,1.0,1.0,1.98,31.0,3649,0.0,1.0,1
1,1,12,1,2,1,24,26,3,2,3,1,1,2.0,2.0,4.34,35.34,3655,1.0,1.0,1
1,1,13,1,2,2,17,30,3,5,3,1,1,2.0,2.0,3.72,39.06,2199,1.0,1.0,1
1,1,14,1,2,3,11,32,2,4,2,1,1,2.0,2.0,5.03,44.09,2337,1.0,1.0,1
1,1,15,1,2,4,30,41,3,5,3,1,1,2.0,2.0,3.94,48.03,1192,1.0,1.0,1
1,1,16,1,2,5,8,2,3,5,3,1,1,2.0,2.0,4.05,52.08,1810,1.0,1.0,1
1,1,17,1,2,6,14,1,5,4,5,1,1,2.0,2.0,4.5,56.58,2845,1.0,1.0,1
1,1,18,1,1,1,15,21,5,4,5,1,1,1.0,1.0,2.01,58.59,1274,0.0,1.0,1
1,1,19,1,1,2,46,9,2,3,2,1,1,1.0,1.0,1.99,60.58,9728,0.0,1.0,1
1,1,20,1,1,3,4,9,2,5,2,1,1,1.0,1.0,1.9,62.48,2662,0.0,1.0,1
1,1,21,1,1,4,10,54,3,5,3,1,1,1.0,1.0,2.03,64.51,4425,0.0,1.0,1
1,1,22,1,1,5,5,17,5,2,5,1,1,1.0,1.0,1.84,66.35,6224,0.0,1.0,1
1,1,23,1,2,1,39,4,3,5,3,1,1,2.0,2.0,4.34,70.69,2906,1.0,1.0,1
1,1,24,1,2,2,47,26,5,3,5,1,1,2.0,2.0,4.77,75.46,2474,1.0,1.0,1
1,1,25,1,2,3,29,17,5,3,5,1,1,2.0,2.0,3.67,79.13,896,1.0,1.0,1
1,1,26,1,2,4,36,10,5,2,5,1,1,2.0,2.0,4.4,83.53,2145,1.0,1.0,1
1,1,27,1,1,1,51,4,3,2,3,1,1,1.0,1.0,2.15,85.68,1952,0.0,1.0,1
1,1,28,1,1,2,16,38,4,2,4,1,1,1.0,1.0,1.81,87.49,3321,0.0,1.0,1
1,1,29,1,1,3,37,30,4,5,4,1,1,1.0,1.0,1.83,89.32,10099,0.0,1.0,1
1,1,30,1,1,4,9,27,4,2,4,1,1,1.0,1.0,2.07,91.39,9735,0.0,1.0,1
1,1,31,1,2,1,36,19,4,5,4,1,1,2.0,2.0,3.81,95.2,2014,1.0,1.0,1
1,1,32,1,1,1,9,16,3,4,3,1,1,1.0,1.0,2.08,97.28,10010,0.0,1.0,1
1,1,33,1,1,2,45,33,4,5,4,1,1,1.0,1.0,2.1,99.38,5305,0.0,1.0,1
1,1,34,1,1,3,16,37,5,2,5,1,1,1.0,1.0,2.08,101.46,1568,0.0,1.0,1
1,1,35,1,2,1,26,43,4,3,4,1,1,2.0,2.0,4.61,106.07,3133,1.0,1.0,1
1,1,36,1,2,2,31,5,4,3,4,1,1,2.0,2.0,4.32,110.39,1097,1.0,1.0,1
1,1,37,1,1,1,9,40,4,5,4,1,1,1.0,1.0,2.14,112.53,8738,0.0,1.0,1
1,1,38,1,1,2,50,11,3,4,3,1,1,1.0,1.0,1.86,114.39,5929,0.0,1.0,1
1,1,39,1,2,1,5,8,2,4,2,1,1,2.0,2.0,3.99,118.38,2249,1.0,1.0,1
1,1,40,1,2,2,26,3,2,4,2,1,1,2.0,2.0,3.93,122.31,2588,1.0,1.0,1
1,1,41,1,2,3,45,8,2,3,2,1,1,2.0,2.0,3.24,125.55,2663,1.0,1.0,1
1,1,42,1,1,1,27,12,4,2,4,1,1,1.0,1.0,2.03,127.58,7849,0.0,1.0,1
1,1,43,1,2,1,14,28,3,2,3,1,1,2.0,2.0,3.5,131.08,1784,1.0,1.0,1
1,1,44,1,2,2,11,17,3,2,4,0,0,0.0,0.0,0.0,131.08,1544,,,1
1,1,45,1,2,3,47,4,4,3,4,1,1,2.0,2.0,4.67,135.75,3906,1.0,,1
1,1,46,1,1,1,12,50,2,3,2,1,1,1.0,1.0,1.91,137.66,1409,0.0,1.0,1
1,1,47,1,1,2,45,21,3,4,3,1,1,1.0,1.0,2.06,139.72,4058,0.0,1.0,1
1,1,48,1,1,3,45,13,2,3,2,1,1,1.0,1.0,2.03,141.75,6103,0.0,1.0,1
1,1,49,1,1,4,13,47,2,5,2,1,1,1.0,1.0,1.89,143.64,5304,0.0,1.0,1
1,1,50,1,2,1,51,50,3,4,3,1,1,2.0,2.0,2.98,146.62,1552,1.0,1.0,1
1,1,51,1,2,2,47,43,4,3,4,1,1,2.0,2.0,3.97,150.59,2444,1.0,1.0,1
1,1,52,1,2,3,4,42,5,4,5,1,1,2.0,2.0,3.52,154.11,1255,1.0,1.0,1
1,1,53,1,2,4,22,48,5,2,5,1,1,2.0,2.0,4.29,158.4,2214,1.0,1.0,1
1,1,54,1,1,1,13,52,4,2,4,1,1,1.0,1.0,2.06,160.46,4101,0.0,1.0,1
1,1,55,1,1,2,16,10,2,3,2,1,1,1.0,1.0,2.2,162.66,2181,0.0,1.0,1
1,1,56,1,1,3,29,30,5,3,5,1,1,1.0,1.0,2.07,164.73,2409,0.0,1.0,1
1,1,57,1,1,4,34,3,3,2,3,1,1,1.0,1.0,1.92,166.65,2680,0.0,1.0,1
1,1,58,1,1,5,2,5,5,3,5,1,1,1.0,1.0,2.04,168.69,1317,0.0,1.0,1
1,1,59,1,1,6,49,38,2,4,2,1,1,1.0,1.0,1.88,170.57,3553,0.0,1.0,1
1,1,60,1,2,1,40,35,4,5,4,1,1,2.0,2.0,3.99,174.56,2216,1.0,1.0,1
1,1,61,1,2,2,24,30,3,2,3,1,1,2.0,2.0,3.98,178.54,2249,1.0,1.0,1
1,1,62,1,2,3,17,11,5,2,5,1,1,2.0,2.0,4.0,182.54,1924,1.0,1.0,1
1,1,63,1,2,4,52,16,2,5,2,1,1,2.0,2.0,3.85,186.39,2441,1.0,1.0,1
1,1,64,1,2,5,23,52,4,5,4,1,1,2.0,2.0,4.52,190.91,3049,1.0,1.0,1
1,1,65,1,1,1,39,52,5,4,5,1,1,1.0,1.0,1.78,192.69,4674,0.0,1.0,1
1,1,66,1,1,2,47,11,2,3,2,1,1,1.0,1.0,2.05,194.74,2491,0.0,1.0,1
1,1,67,1,1,3,24,51,2,5,2,1,1,1.0,1.0,2.11,196.85,1329,0.0,1.0,1
1,1,68,1,2,1,31,4,3,5,3,1,1,2.0,2.0,4.34,201.19,3921,1.0,1.0,1
1,1,69,1,1,1,3,2,3,4,4,2,1,2.0,2.0,4.27,205.46,3465,1.0,2.0,1
1,1,70,1,2,1,52,25,4,2,2,2,1,1.0,1.0,2.0,207.46,3162,0.0,1.0,1
1,1,71,1,2,2,18,20,2,5,5,2,1,1.0,1.0,2.08,209.54,2424,0.0,1.0,1
1,1,72,1,2,3,38,6,2,3,3,2,1,1.0,1.0,2.07,211.61,1567,0.0,1.0,1
1,1,73,1,2,4,50,38,4,2,2,2,1,1.0,1.0,1.97,213.58,6128,0.0,1.0,1
1,1,74,1,2,5,30,23,4,3,4,1,1,2.0,2.0,3.82,217.4,992,1.0,2.0,1
1,1,75,1,2,6,7,6,3,4,3,1,1,2.0,2.0,3.86,221.26,9143,1.0,1.0,1
1,1,76,1,1,1,43,2,2,5,5,2,1,2.0,2.0,3.3,224.56,1122,1.0,2.0,1
1,1,77,1,1,2,50,17,5,4,4,2,1,2.0,2.0,3.89,228.45,1240,1.0,1.0,1
1,1,78,1,1,3,14,13,5,4,4,2,1,2.0,2.0,4.06,232.51,4296,1.0,1.0,1
1,1,79,1,1,4,23,29,5,2,2,2,1,2.0,2.0,4.15,236.66,2393,1.0,1.0,1
1,1,80,1,1,5,47,14,3,2,2,2,1,2.0,2.0,4.68,241.34,1488,1.0,1.0,1
1,1,81,1,2,1,3,38,4,3,4,1,1,2.0,2.0,3.83,245.17,1617,1.0,2.0,1
1,1,82,1,2,2,16,53,2,4,2,1,1,2.0,2.0,4.29,249.46,1392,1.0,1.0,1
1,1,83,1,1,1,40,30,4,5,4,1,1,1.0,1.0,2.09,251.55,4319,0.0,1.0,1
1,1,84,1,1,2,4,50,5,4,4,2,1,2.0,2.0,4.44,255.99,1849,1.0,2.0,1
1,1,1,2,2,1,30,45,3,4,3,1,1,2.0,2.0,3.53,259.52,2313,1.0,,1
1,1,2,2,2,2,15,7,4,5,4,1,1,2.0,2.0,4.1,263.62,1623,1.0,1.0,1
1,1,3,2,2,3,18,54,2,3,2,1,1,2.0,2.0,4.11,267.73,3106,1.0,1.0,1
1,1,4,2,2,4,13,14,4,2,4,1,1,2.0,2.0,3.53,271.26,1550,1.0,1.0,1
1,1,5,2,2,5,23,8,2,4,2,1,1,2.0,2.0,3.65,274.91,2729,1.0,1.0,1
1,1,6,2,2,6,35,30,5,2,5,1,1,2.0,2.0,4.51,279.42,3912,1.0,1.0,1
1,1,7,2,1,1,36,33,4,3,3,2,1,2.0,2.0,3.94,283.36,2415,1.0,2.0,1
1,1,8,2,1,2,3,9,2,4,4,2,1,2.0,2.0,4.18,287.54,1577,1.0,1.0,1
1,1,9,2,1,3,9,10,2,5,5,2,1,2.0,2.0,4.04,291.58,1440,1.0,1.0,1
1,1,10,2,1,4,18,30,5,2,2,2,1,2.0,2.0,3.7,295.28,4033,1.0,1.0,1
1,1,11,2,1,5,48,31,3,5,5,2,1,2.0,2.0,3.74,299.02,1725,1.0,1.0,1
1,1,12,2,1,6,34,12,5,4,4,2,1,2.0,2.0,4.21,303.23,1289,1.0,1.0,1
1,1,13,2,2,1,17,7,5,3,5,1,1,2.0,2.0,3.55,306.78,2575,1.0,2.0,1
1,1,14,2,2,2,45,11,4,2,4,1,1,2.0,2.0,4.37,311.15,4305,1.0,1.0,1
1,1,15,2,2,3,32,43,2,4,2,1,1,2.0,2.0,4.27,315.42,2712,1.0,1.0,1
1,1,16,2,2,4,12,11,3,4,3,1,1,2.0,2.0,3.61,319.03,1519,1.0,1.0,1
1,1,17,2,2,5,24,46,3,4,3,1,1,2.0,2.0,3.87,322.9,3986,1.0,1.0,1
1,1,18,2,1,1,49,21,3,2,2,2,1,2.0,2.0,3.44,326.34,1616,1.0,2.0,1
1,1,19,2,1,2,38,48,3,5,5,2,1,2.0,2.0,2.96,329.3,3768,1.0,1.0,1
1,1,20,2,1,3,38,1,4,5,5,2,1,2.0,2.0,4.46,333.76,1136,1.0,1.0,1
1,1,21,2,1,4,5,43,4,2,2,2,1,2.0,2.0,3.76,337.52,3021,1.0,1.0,1
1,1,22,2,1,5,33,13,2,5,5,2,1,2.0,2.0,4.15,341.67,2855,1.0,1.0,1
1,1,23,2,2,1,51,31,4,2,4,1,1,2.0,2.0,4.11,345.78,1967,1.0,2.0,1
1,1,24,2,2,2,37,30,3,4,3,1,1,2.0,2.0,4.01,349.79,4463,1.0,1.0,1
1,1,25,2,2,3,44,38,3,2,3,1,1,2.0,2.0,3.53,353.32,2953,1.0,1.0,1
1,1,26,2,2,4,31,25,5,3,5,1,1,2.0,2.0,3.55,356.87,1897,1.0,1.0,1
1,1,27,2,1,1,18,24,4,2,2,2,1,2.0,2.0,3.82,360.69,3530,1.0,2.0,1
1,1,28,2,2,1,5,39,5,4,5,1,1,2.0,2.0,3.44,364.13,3056,1.0,2.0,1
1,1,29,2,2,2,50,39,2,4,2,1,1,2.0,2.0,3.5,367.63,1560,1.0,1.0,1
1,1,30,2,2,3,16,41,3,5,3,1,1,2.0,2.0,4.69,372.32,3449,1.0,1.0,1
1,1,31,2,1,1,11,53,2,5,5,2,1,2.0,2.0,4.03,376.35,1640,1.0,2.0,1
1,1,32,2,1,2,46,24,3,5,5,2,1,2.0,2.0,3.43,379.78,3182,1.0,1.0,1
1,1,33,2,2,1,17,8,2,3,2,1,1,2.0,2.0,3.98,383.76,2864,1.0,2.0,1
1,1,34,2,2,2,26,9,2,4,2,1,1,2.0,2.0,3.47,387.23,2169,1.0,1.0,1
1,1,35,2,1,1,34,17,3,2,2,2,1,2.0,2.0,3.36,390.59,1376,1.0,2.0,1
1,1,36,2,1,2,49,51,5,2,2,2,1,2.0,2.0,3.88,394.47,1383,1.0,1.0,1
1,1,37,2,1,3,49,13,3,2,2,2,1,2.0,2.0,4.45,398.92,2593,1.0,1.0,1
1,1,38,2,2,1,20,49,3,4,3,1,1,2.0,2.0,4.06,402.98,3674,1.0,2.0,1
1,1,39,2,1,1,5,3,5,3,3,2,1,2.0,2.0,4.31,407.29,1886,1.0,2.0,1
1,1,40,2,1,2,13,32,2,3,3,2,1,2.0,2.0,3.45,410.74,2849,1.0,1.0,1
1,1,41,2,1,3,53,38,2,5,5,2,1,2.0,2.0,3.78,414.52,3865,1.0,1.0,1
1,1,42,2,1,4,47,17,2,3,3,2,1,2.0,2.0,3.88,418.4,1689,1.0,1.0,1
1,1,43,2,2,1,16,48,5,4,5,1,1,2.0,2.0,3.43,421.83,1621,1.0,2.0,1
1,1,44,2,2,2,32,14,3,5,5,2,1,1.0,1.0,1.84,423.67,2559,0.0,2.0,1
1,1,45,2,2,3,1,20,4,2,4,1,1,2.0,2.0,4.44,428.11,1384,1.0,2.0,1
1,1,46,2,1,1,11,13,5,3,3,2,1,2.0,2.0,4.01,432.12,2960,1.0,2.0,1
1,1,47,2,1,2,24,26,4,3,3,2,1,2.0,2.0,3.7,435.82,3104,1.0,1.0,1
1,1,48,2,1,3,1,37,5,4,4,2,1,2.0,2.0,4.38,440.2,1857,1.0,1.0,1
1,1,49,2,2,1,52,45,2,3,3,2,1,1.0,1.0,2.03,442.23,2122,0.0,1.0,1
1,1,50,2,1,1,40,2,4,2,2,2,1,2.0,2.0,3.53,445.76,3248,1.0,1.0,1
1,1,51,2,2,1,14,52,4,3,3,2,1,1.0,1.0,2.16,447.92,1880,0.0,1.0,1
1,1,52,2,2,2,48,22,4,3,3,2,1,1.0,1.0,2.03,449.95,3456,0.0,1.0,1
1,1,53,2,2,3,44,3,4,5,5,2,1,1.0,1.0,2.17,452.12,4000,0.0,1.0,1
1,1,54,2,2,4,46,44,2,5,2,1,1,2.0,2.0,4.54,456.66,3526,1.0,2.0,1
1,1,55,2,1,1,14,49,2,3,3,2,1,2.0,2.0,3.68,460.34,2272,1.0,2.0,1
1,1,56,2,1,2,12,50,5,4,4,2,1,2.0,2.0,3.39,463.73,4405,1.0,1.0,1
1,1,57,2,2,1,45,15,3,4,3,1,1,2.0,2.0,3.97,467.7,3777,1.0,2.0,1
1,1,58,2,2,2,23,9,3,2,3,1,1,2.0,2.0,3.84,471.54,5037,1.0,1.0,1
1,1,59,2,2,3,25,48,4,3,4,1,1,2.0,2.0,3.6,475.14,2634,1.0,1.0,1
1,1,60,2,2,4,27,41,4,5,4,1,1,2.0,2.0,4.23,479.37,2726,1.0,1.0,1
1,1,61,2,2,5,28,1,3,4,3,1,1,2.0,2.0,4.7,484.07,2354,1.0,1.0,1
1,1,62,2,2,6,20,11,3,5,3,1,1,2.0,2.0,3.74,487.81,2047,1.0,1.0,1
1,1,63,2,1,1,22,21,5,3,3,2,1,2.0,2.0,3.6,491.41,2776,1.0,2.0,1
1,1,64,2,1,2,22,37,4,5,5,2,1,2.0,2.0,3.88,495.29,2303,1.0,1.0,1
1,1,65,2,1,3,25,22,2,4,4,2,1,2.0,2.0,4.31,499.6,2455,1.0,1.0,1
1,1,66,2,1,4,20,29,5,4,4,2,1,2.0,2.0,3.6,503.2,1296,1.0,1.0,1
1,1,67,2,1,5,13,3,5,2,2,2,1,2.0,2.0,3.43,506.63,3169,1.0,1.0,1
1,1,68,2,2,1,43,51,2,3,2,1,1,2.0,2.0,3.94,510.57,3024,1.0,2.0,1
1,1,69,2,2,2,17,4,2,4,2,1,1,2.0,2.0,3.97,514.54,1972,1.0,1.0,1
1,1,70,2,2,3,1,42,4,5,4,1,1,2.0,2.0,4.23,518.77,3174,1.0,1.0,1
1,1,71,2,2,4,22,8,4,3,4,1,1,2.0,2.0,3.72,522.49,2559,1.0,1.0,1
1,1,72,2,2,5,6,52,2,5,2,1,1,2.0,2.0,3.93,526.42,2003,1.0,1.0,1
1,1,73,2,1,1,4,49,5,2,2,2,1,2.0,2.0,3.8,530.22,2472,1.0,2.0,1
1,1,74,2,1,2,42,32,5,2,2,2,1,2.0,2.0,3.96,534.18,1447,1.0,1.0,1
1,1,75,2,1,3,35,50,5,3,3,2,1,2.0,2.0,4.72,538.9,2081,1.0,1.0,1
1,1,76,2,1,4,51,1,3,2,2,2,1,2.0,2.0,3.71,542.61,1038,1.0,1.0,1
1,1,77,2,2,1,19,1,5,4,5,1,1,2.0,2.0,3.37,545.98,4272,1.0,2.0,1
1,1,78,2,2,2,36,30,5,2,5,1,1,2.0,2.0,4.22,550.2,2559,1.0,1.0,1
1,1,79,2,1,1,53,28,2,5,5,2,1,2.0,2.0,3.57,553.77,1386,1.0,2.0,1
1,1,80,2,1,2,27,34,4,3,3,2,1,2.0,2.0,4.02,557.79,5738,1.0,1.0,1
1,1,81,2,1,3,52,21,3,5,5,2,1,2.0,2.0,3.7,561.49,2143,1.0,1.0,1
1,1,82,2,1,4,28,3,3,2,2,2,1,2.0,2.0,4.25,565.74,1377,1.0,1.0,1
1,1,83,2,1,5,11,1,4,5,5,2,1,2.0,2.0,4.26,570.0,1169,1.0,1.0,1
1,1,84,2,1,6,22,23,5,3,3,2,1,2.0,2.0,3.9,573.9,3024,1.0,1.0,1
1,1,1,3,1,1,2,14,5,4,4,2,1,2.0,2.0,3.03,576.93,3313,1.0,,1
1,1,2,3,1,2,3,37,4,3,3,2,1,2.0,2.0,4.06,580.99,4438,1.0,1.0,1
1,1,3,3,1,3,32,33,5,2,2,2,1,2.0,2.0,4.75,585.74,1095,1.0,1.0,1
1,1,4,3,1,4,52,15,2,4,4,2,1,2.0,2.0,4.48,590.22,881,1.0,1.0,1
1,1,5,3,1,5,21,13,5,4,4,2,1,2.0,2.0,3.26,593.48,1602,1.0,1.0,1
1,1,6,3,1,6,16,43,3,4,4,2,1,2.0,2.0,3.96,597.44,2898,1.0,1.0,1
1,1,7,3,2,1,44,5,4,3,4,1,1,2.0,2.0,3.68,601.12,3712,1.0,2.0,1
1,1,8,3,1,1,38,31,3,5,5,2,1,2.0,2.0,3.52,604.64,2960,1.0,2.0,1
1,1,9,3,1,2,8,14,2,4,4,2,1,2.0,2.0,3.42,608.06,1600,1.0,1.0,1
1,1,10,3,1,3,7,42,3,5,5,2,1,2.0,2.0,4.14,612.2,2680,1.0,1.0,1
1,1,11,3,2,1,18,17,4,5,4,1,1,2.0,2.0,3.8,616.0,4432,1.0,2.0,1
1,1,12,3,2,2,10,46,2,5,2,1,1,2.0,2.0,4.03,620.03,1720,1.0,1.0,1
1,1,13,3,2,3,26,7,5,4,5,1,1,2.0,2.0,3.83,623.86,1353,1.0,1.0,1
1,1,14,3,1,1,52,50,3,4,4,2,1,2.0,2.0,3.78,627.64,1896,1.0,2.0,1
1,1,15,3,1,2,27,4,4,5,5,2,1,2.0,2.0,4.17,631.81,2966,1.0,1.0,1
1,1,16,3,2,1,8,35,3,2,3,1,1,2.0,2.0,4.34,636.15,3656,1.0,2.0,1
1,1,17,3,2,2,42,29,5,3,5,1,1,2.0,2.0,5.0,641.15,3128,1.0,1.0,1
1,1,18,3,2,3,48,8,2,5,2,1,1,2.0,2.0,3.36,644.51,2961,1.0,1.0,1
1,1,19,3,2,4,20,49,2,4,2,1,1,2.0,2.0,3.52,648.03,2559,1.0,1.0,1
1,1,20,3,2,5,14,21,5,2,5,1,1,2.0,2.0,4.49,652.52,1625,1.0,1.0,1
1,1,21,3,1,1,51,11,3,5,5,2,1,2.0,2.0,3.82,656.34,1550,1.0,2.0,1
1,1,22,3,1,2,13,25,5,2,2,2,1,2.0,2.0,3.35,659.69,1800,1.0,1.0,1
1,1,23,3,1,3,15,23,5,3,5,1,1,1.0,1.0,2.04,661.73,2153,0.0,2.0,1
1,1,24,3,1,4,4,32,5,4,4,2,1,2.0,2.0,4.73,666.46,1864,1.0,2.0,1
1,1,25,3,1,5,22,35,4,2,4,1,1,1.0,1.0,2.08,668.54,2057,0.0,2.0,1
1,1,26,3,2,1,27,43,4,5,4,1,1,2.0,2.0,4.92,673.46,2874,1.0,1.0,1
1,1,27,3,2,2,11,24,4,2,2,2,1,1.0,1.0,2.06,675.52,1295,0.0,2.0,1
1,1,28,3,1,1,20,43,2,3,3,2,1,2.0,2.0,4.88,680.4,3071,1.0,1.0,1
1,1,29,3,1,2,32,25,5,2,2,2,1,2.0,2.0,3.84,684.24,2467,1.0,1.0,1
1,1,30,3,1,3,26,13,3,4,4,2,1,2.0,2.0,3.46,687.7,2264,1.0,1.0,1
1,1,31,3,1,4,33,6,2,5,5,2,1,2.0,2.0,3.9,691.6,1329,1.0,1.0,1
1,1,32,3,2,1,18,45,4,3,4,1,1,2.0,2.0,4.56,696.16,2391,1.0,2.0,1
1,1,33,3,2,2,52,35,3,5,3,1,1,2.0,2.0,3.47,699.63,2879,1.0,1.0,1
1,1,34,3,2,3,46,18,5,3,5,1,1,2.0,2.0,4.3,703.93,1926,1.0,1.0,1
1,1,35,3,2,4,16,8,2,3,2,1,1,2.0,2.0,3.72,707.65,1552,1.0,1.0,1
1,1,36,3,1,1,27,7,2,3,3,2,1,2.0,2.0,4.26,711.91,2833,1.0,2.0,1
1,1,37,3,2,1,34,52,5,4,5,1,1,2.0,2.0,3.48,715.39,2344,1.0,2.0,1
1,1,38,3,2,2,38,20,2,3,2,1,1,2.0,2.0,4.04,719.43,2540,1.0,1.0,1
1,1,39,3,2,3,35,44,4,2,4,1,1,2.0,2.0,3.06,722.49,2222,1.0,1.0,1
1,1,40,3,2,4,43,16,4,2,4,1,1,2.0,2.0,3.77,726.26,3184,1.0,1.0,1
1,1,41,3,2,5,42,11,4,3,4,1,1,2.0,2.0,4.22,730.48,2776,1.0,1.0,1
1,1,42,3,2,6,13,29,2,4,2,1,1,2.0,2.0,3.85,734.33,1088,1.0,1.0,1
1,1,43,3,1,1,16,44,4,5,5,2,1,2.0,2.0,4.58,738.91,3695,1.0,2.0,1
1,1,44,3,1,2,39,28,5,3,3,2,1,2.0,2.0,3.7,742.61,1694,1.0,1.0,1
1,1,45,3,2,1,11,32,4,2,4,1,1,2.0,2.0,2.9,745.51,1632,1.0,2.0,1
1,1,46,3,1,1,36,52,3,2,2,2,1,2.0,2.0,3.42,748.93,1294,1.0,2.0,1
1,1,47,3,1,2,51,34,2,3,3,2,1,2.0,2.0,4.5,753.43,1910,1.0,1.0,1
1,1,48,3,1,3,52,25,2,4,4,2,1,2.0,2.0,3.95,757.38,2400,1.0,1.0,1
1,1,49,3,1,4,46,43,4,5,5,2,1,2.0,2.0,4.18,761.56,3133,1.0,1.0,1
1,1,50,3,1,5,33,34,5,4,4,2,1,2.0,2.0,4.44,766.0,3826,1.0,1.0,1
1,1,51,3,2,1,50,54,3,2,3,1,1,2.0,2.0,3.0,769.0,1967,1.0,2.0,1
1,1,52,3,2,2,8,2,2,5,2,1,1,2.0,2.0,3.7,772.7,3378,1.0,1.0,1
1,1,53,3,2,3,9,53,3,5,3,1,1,2.0,2.0,3.67,776.37,1297,1.0,1.0,1
1,1,54,3,2,4,54,34,4,5,4,1,1,2.0,2.0,3.52,779.89,1745,1.0,1.0,1
1,1,55,3,1,1,54,4,3,5,5,2,1,2.0,2.0,3.91,783.8,3130,1.0,2.0,1
1,1,56,3,1,2,34,19,3,2,2,2,1,2.0,2.0,4.72,788.52,3392,1.0,1.0,1
1,1,57,3,1,3,44,29,5,2,2,2,1,2.0,2.0,3.98,792.5,1289,1.0,1.0,1
1,1,58,3,1,4,51,40,2,5,5,2,1,2.0,2.0,4.58,797.08,2574,1.0,1.0,1
1,1,59,3,2,1,30,43,5,3,5,1,1,2.0,2.0,3.67,800.75,1751,1.0,2.0,1
1,1,60,3,2,2,14,29,5,3,5,1,1,2.0,2.0,4.0,804.75,1287,1.0,1.0,1
1,1,61,3,2,3,12,24,2,3,2,1,1,2.0,2.0,3.63,808.38,729,1.0,1.0,1
1,1,62,3,2,4,4,44,3,4,3,1,1,2.0,2.0,4.28,812.66,4257,1.0,1.0,1
1,1,63,3,2,5,10,6,4,2,4,1,1,2.0,2.0,3.88,816.54,1744,1.0,1.0,1
1,1,64,3,2,6,45,54,2,4,2,1,1,2.0,2.0,4.23,820.77,3551,1.0,1.0,1
1,1,65,3,1,1,32,7,4,3,3,2,1,2.0,2.0,4.31,825.08,2823,1.0,2.0,1
1,1,66,3,1,2,43,14,3,4,4,2,1,2.0,2.0,3.96,829.04,2439,1.0,1.0,1
1,1,67,3,1,3,41,32,2,3,3,2,1,2.0,2.0,4.42,833.46,1632,1.0,1.0,1
1,1,68,3,1,4,50,28,3,2,2,2,1,2.0,2.0,5.09,838.55,1322,1.0,1.0,1
1,1,69,3,1,5,21,6,4,5,5,2,1,2.0,2.0,4.25,842.8,2313,1.0,1.0,1
1,1,70,3,1,6,17,25,5,2,2,2,1,2.0,2.0,3.99,846.79,2529,1.0,1.0,1
1,1,71,3,2,1,48,44,5,2,5,1,1,2.0,2.0,4.43,851.22,3378,1.0,2.0,1
1,1,72,3,2,2,4,27,4,2,4,1,1,2.0,2.0,4.03,855.25,3026,1.0,1.0,1
1,1,73,3,2,3,39,42,3,5,3,1,1,2.0,2.0,3.48,858.73,4087,1.0,1.0,1
1,1,74,3,1,1,47,10,3,2,2,2,1,2.0,2.0,4.23,862.96,2179,1.0,2.0,1
1,1,75,3,1,2,17,5,2,4,4,2,1,2.0,2.0,4.0,866.96,1976,1.0,1.0,1
1,1,76,3,1,3,25,36,4,3,3,2,1,2.0,2.0,3.87,870.83,2343,1.0,1.0,1
1,1,77,3,2,1,38,22,2,5,2,1,1,2.0,2.0,4.6,875.43,4691,1.0,2.0,1
1,1,78,3,2,2,18,11,5,3,5,1,1,2.0,2.0,4.88,880.31,2688,1.0,1.0,1
1,1,79,3,2,3,44,17,2,5,2,1,1,2.0,2.0,3.75,884.06,2098,1.0,1.0,1
1,1,80,3,2,4,41,36,4,3,4,1,1,2.0,2.0,4.05,888.11,2327,1.0,1.0,1
1,1,81,3,2,5,24,38,3,2,3,1,1,2.0,2.0,3.62,891.73,2650,1.0,1.0,1
1,1,82,3,1,1,21,35,3,4,4,2,1,2.0,2.0,4.32,896.05,2018,1.0,2.0,1
1,1,83,3,2,1,17,53,5,4,5,1,1,2.0,2.0,2.89,898.94,4143,1.0,2.0,1
1,1,84,3,2,2,40,38,3,4,3,1,1,2.0,2.0,4.47,903.41,3610,1.0,1.0,1
1,1,1,4,2,1,19,47,5,3,5,1,1,2.0,2.0,4.1,907.51,3353,1.0,,1
1,1,2,4,2,2,50,40,3,5,3,1,1,2.0,2.0,4.12,911.63,1633,1.0,1.0,1
1,1,3,4,2,3,11,52,3,2,3,1,1,2.0,2.0,4.57,916.2,2161,1.0,1.0,1
1,1,4,4,2,4,4,50,4,2,4,1,1,2.0,2.0,3.87,920.07,2600,1.0,1.0,1
1,1,5,4,2,5,11,37,2,4,2,1,1,2.0,2.0,3.94,924.01,946,1.0,1.0,1
1,1,6,4,1,1,16,45,2,3,3,2,1,2.0,2.0,3.4,927.41,3007,1.0,2.0,1
1,1,7,4,1,2,53,6,2,4,4,2,1,2.0,2.0,3.22,930.63,4167,1.0,1.0,1
1,1,8,4,1,3,37,22,3,5,5,2,1,2.0,2.0,3.67,934.3,3521,1.0,1.0,1
1,1,9,4,1,4,15,28,4,3,3,2,1,2.0,2.0,4.13,938.43,2310,1.0,1.0,1
1,1,10,4,1,5,12,48,5,4,4,2,1,2.0,2.0,3.74,942.17,3718,1.0,1.0,1
1,1,11,4,1,6,23,52,3,4,4,2,1,2.0,2.0,3.37,945.54,1637,1.0,1.0,1
1,1,12,4,2,1,22,37,5,2,5,1,1,2.0,2.0,4.51,950.05,2540,1.0,2.0,1
1,1,13,4,2,2,4,44,3,2,3,1,1,2.0,2.0,3.66,953.71,2757,1.0,1.0,1
1,1,14,4,2,3,31,14,3,5,3,1,1,2.0,2.0,3.99,957.7,1705,1.0,1.0,1
1,1,15,4,2,4,30,20,4,2,4,1,1,2.0,2.0,4.0,961.7,1104,1.0,1.0,1
1,1,16,4,2,5,6,29,5,3,5,1,1,2.0,2.0,3.88,965.58,2442,1.0,1.0,1
1,1,17,4,2,6,9,47,2,3,2,1,1,2.0,2.0,4.19,969.77,1311,1.0,1.0,1
1,1,18,4,1,1,54,44,5,3,3,2,1,2.0,2.0,3.88,973.65,3368,1.0,2.0,1
1,1,19,4,1,2,49,26,3,4,4,2,1,2.0,2.0,3.22,976.87,2470,1.0,1.0,1
1,1,20,4,1,3,39,46,3,5,5,2,1,2.0,2.0,3.52,980.39,3401,1.0,1.0,1
1,1,21,4,1,4,18,52,3,5,5,2,1,2.0,2.0,4.11,984.5,2137,1.0,1.0,1
1,1,22,4,1,5,45,2,3,2,2,2,1,2.0,2.0,3.41,987.91,1489,1.0,1.0,1
1,1,23,4,2,1,46,27,2,5,2,1,1,2.0,2.0,3.84,991.75,2905,1.0,2.0,1
1,1,24,4,2,2,45,29,5,2,5,1,1,2.0,2.0,3.56,995.31,3136,1.0,1.0,1
1,1,25,4,2,3,28,44,5,3,5,1,1,2.0,2.0,3.45,998.76,1134,1.0,1.0,1
1,1,26,4,2,4,33,14,4,2,4,1,1,2.0,2.0,3.52,1002.28,4041,1.0,1.0,1
1,1,27,4,1,1,1,24,4,5,5,2,1,2.0,2.0,3.81,1006.09,3777,1.0,2.0,1
1,1,28,4,1,2,33,3,4,3,3,2,1,2.0,2.0,4.08,1010.17,2054,1.0,1.0,1
1,1,29,4,1,3,4,42,2,4,4,2,1,2.0,2.0,3.95,1014.12,2728,1.0,1.0,1
1,1,30,4,1,4,24,10,5,4,4,2,1,2.0,2.0,4.5,1018.62,3375,1.0,1.0,1
1,1,31,4,2,1,46,50,5,4,5,1,1,2.0,2.0,3.88,1022.5,2409,1.0,2.0,1
1,1,32,4,1,1,19,13,4,3,3,2,1,2.0,2.0,3.28,1025.78,1726,1.0,2.0,1
1,1,33,4,1,2,25,7,4,2,2,2,1,2.0,2.0,4.0,1029.78,1968,1.0,1.0,1
1,1,34,4,1,3,25,16,2,5,5,2,1,2.0,2.0,4.03,1033.81,1038,1.0,1.0,1
1,1,35,4,2,1,34,53,2,5,2,1,1,2.0,2.0,4.15,1037.96,3648,1.0,2.0,1
1,1,36,4,2,2,2,34,4,2,4,1,1,2.0,2.0,4.24,1042.2,1921,1.0,1.0,1
1,1,37,4,1,1,24,41,5,4,4,2,1,2.0,2.0,4.6,1046.8,2696,1.0,2.0,1
1,1,38,4,1,2,20,5,2,4,4,2,1,2.0,2.0,3.74,1050.54,3368,1.0,1.0,1
1,1,39,4,2,1,46,51,3,2,3,1,1,2.0,2.0,4.12,1054.66,2560,1.0,2.0,1
1,1,40,4,2,2,52,50,5,3,5,1,1,2.0,2.0,3.99,1058.65,1944,1.0,1.0,1
1,1,41,4,2,3,36,3,5,3,5,1,1,2.0,2.0,3.73,1062.38,1768,1.0,1.0,1
1,1,42,4,1,1,38,28,2,3,3,2,1,2.0,2.0,5.01,1067.39,1817,1.0,2.0,1
1,1,43,4,2,1,9,7,4,5,4,1,1,2.0,2.0,3.88,1071.27,2815,1.0,2.0,1
1,1,44,4,2,2,37,15,4,3,4,1,1,2.0,2.0,3.34,1074.61,3585,1.0,1.0,1
1,1,45,4,2,3,22,2,4,5,4,1,1,2.0,2.0,4.83,1079.44,3209,1.0,1.0,1
1,1,46,4,1,1,50,41,4,5,5,2,1,2.0,2.0,4.15,1083.59,2569,1.0,2.0,1
1,1,47,4,1,2,32,10,3,5,5,2,1,2.0,2.0,3.47,1087.06,984,1.0,1.0,1
1,1,48,4,1,3,8,6,2,4,4,2,1,2.0,2.0,4.29,1091.35,2928,1.0,1.0,1
1,1,49,4,1,4,33,40,4,3,3,2,1,2.0,2.0,4.6,1095.95,3985,1.0,1.0,1
1,1,50,4,2,1,53,21,2,5,2,1,1,2.0,2.0,3.58,1099.53,1981,1.0,2.0,1
1,1,51,4,2,2,49,20,2,5,2,1,1,2.0,2.0,4.06,1103.59,1666,1.0,1.0,1
1,1,52,4,2,3,17,33,5,4,5,1,1,2.0,2.0,3.93,1107.52,3305,1.0,1.0,1
1,1,53,4,2,4,47,14,2,3,2,1,1,2.0,2.0,3.45,1110.97,3061,1.0,1.0,1
1,1,54,4,1,1,15,21,4,5,5,2,1,2.0,2.0,4.56,1115.53,2585,1.0,2.0,1
1,1,55,4,1,2,4,39,3,4,4,2,1,2.0,2.0,3.99,1119.52,3201,1.0,1.0,1
1,1,56,4,1,3,42,39,4,2,2,2,1,2.0,2.0,4.25,1123.77,2312,1.0,1.0,1
1,1,57,4,1,4,10,29,5,2,2,2,1,2.0,2.0,3.66,1127.43,1633,1.0,1.0,1
1,1,58,4,1,5,36,49,5,2,2,2,1,2.0,2.0,3.69,1131.12,3072,1.0,1.0,1
1,1,59,4,1,6,11,20,2,3,2,1,1,1.0,1.0,2.04,1133.16,842,0.0,2.0,1
1,1,60,4,2,1,40,35,5,2,5,1,1,2.0,2.0,4.05,1137.21,3928,1.0,1.0,1
1,1,61,4,2,2,3,46,3,2,3,1,1,2.0,2.0,4.87,1142.08,2109,1.0,1.0,1
1,1,62,4,2,3,14,9,5,3,5,1,1,2.0,2.0,3.87,1145.95,2102,1.0,1.0,1
1,1,63,4,2,4,33,7,2,5,2,1,1,2.0,2.0,5.04,1150.99,1488,1.0,1.0,1
1,1,64,4,2,5,5,36,3,2,3,1,1,2.0,2.0,4.71,1155.7,2977,1.0,1.0,1
1,1,65,4,1,1,53,19,2,4,4,2,1,2.0,2.0,3.08,1158.78,3326,1.0,2.0,1
1,1,66,4,1,2,37,12,4,3,3,2,1,2.0,2.0,3.21,1161.99,2110,1.0,1.0,1
1,1,67,4,1,3,17,47,2,3,3,2,1,2.0,2.0,3.73,1165.72,2552,1.0,1.0,1
1,1,68,4,2,1,51,47,3,2,3,1,1,2.0,2.0,3.91,1169.63,5373,1.0,2.0,1
1,1,69,4,1,1,50,29,3,5,5,2,1,2.0,2.0,4.0,1173.63,1553,1.0,2.0,1
1,1,70,4,2,1,39,13,4,3,4,1,1,2.0,2.0,4.39,1178.02,3960,1.0,2.0,1
1,1,71,4,2,2,49,5,2,4,2,1,1,2.0,2.0,3.66,1181.68,1804,1.0,1.0,1
1,1,72,4,2,3,25,28,2,3,2,1,1,2.0,2.0,3.66,1185.34,2170,1.0,1.0,1
1,1,73,4,2,4,1,25,5,2,5,1,1,2.0,2.0,3.91,1189.25,1286,1.0,1.0,1
1,1,74,4,2,5,1,20,3,4,3,1,1,2.0,2.0,3.99,1193.24,2026,1.0,1.0,1
1,1,75,4,2,6,42,20,4,5,4,1,1,2.0,2.0,4.13,1197.37,2410,1.0,1.0,1
1,1,76,4,1,1,6,38,3,4,3,1,1,1.0,1.0,2.12,1199.49,2826,0.0,1.0,1
1,1,77,4,1,2,51,1,5,4,4,2,1,2.0,2.0,4.29,1203.78,1272,1.0,2.0,1
1,1,78,4,1,3,24,19,3,4,4,2,1,2.0,2.0,3.17,1206.95,3405,1.0,1.0,1
1,1,79,4,1,4,25,9,3,4,4,2,1,2.0,2.0,4.33,1211.28,5815,1.0,1.0,1
1,1,80,4,1,5,40,29,5,2,2,2,1,2.0,2.0,4.38,1215.66,1280,1.0,1.0,1
1,1,81,4,2,1,17,35,5,4,5,1,1,2.0,2.0,4.3,1219.96,2367,1.0,2.0,1
1,1,82,4,2,2,9,23,2,5,2,1,1,2.0,2.0,4.62,1224.58,1665,1.0,1.0,1
1,1,83,4,1,1,37,19,4,2,2,2,1,2.0,2.0,4.15,1228.73,3496,1.0,2.0,1
1,1,84,4,1,2,5,23,4,5,5,2,1,2.0,2.0,3.68,1232.41,3745,1.0,1.0,1
2,2,1,1,1,1,39,38,4,5,5,2,1,2.0,1.0,3.95,3.95,5318,1.0,,10
2,2,2,1,1,2,42,27,2,3,3,2,1,2.0,1.0,3.8,7.75,4009,1.0,1.0,10
2,2,3,1,1,3,8,49,5,2,2,2,1,2.0,1.0,4.01,11.76,3206,1.0,1.0,10
2,2,4,1,1,4,51,41,4,5,4,1,1,1.0,2.0,2.14,13.9,2300,0.0,2.0,10
2,2,5,1,2,1,20,47,2,5,2,1,1,2.0,1.0,3.86,17.76,7637,1.0,1.0,10
2,2,6,1,1,1,36,24,4,5,2,0,0,0.0,0.0,0.0,17.76,1345,,,10
2,2,7,1,1,2,11,8,2,4,5,0,0,0.0,0.0,0.0,17.76,2118,,,10
2,2,8,1,1,3,45,21,2,4,4,2,1,2.0,1.0,4.14,21.9,1592,1.0,,10
2,2,9,1,1,4,47,15,3,4,4,2,1,2.0,1.0,4.14,26.04,3303,1.0,1.0,10
2,2,10,1,1,5,23,25,3,5,5,2,1,2.0,1.0,4.0,30.04,2703,1.0,1.0,10
2,2,11,1,1,6,40,29,3,4,4,2,1,2.0,1.0,4.04,34.08,5129,1.0,1.0,10
2,2,12,1,2,1,52,29,5,3,3,2,1,1.0,2.0,2.08,36.16,8641,0.0,1.0,10
2,2,13,1,2,2,26,40,2,5,2,1,1,2.0,1.0,3.98,40.14,2165,1.0,2.0,10
2,2,14,1,2,3,20,40,2,5,2,1,1,2.0,1.0,4.09,44.23,7475,1.0,1.0,10
2,2,15,1,2,4,52,39,5,4,4,2,1,1.0,2.0,1.72,45.95,5942,0.0,2.0,10
2,2,16,1,2,5,14,34,5,2,2,2,1,1.0,2.0,3.03,48.98,2934,0.0,1.0,10
2,2,17,1,2,6,51,31,5,3,3,2,1,1.0,2.0,1.94,50.92,1446,0.0,1.0,10
2,2,18,1,1,1,22,26,4,2,4,1,1,1.0,2.0,2.05,52.97,6097,0.0,2.0,10
2,2,19,1,2,1,40,30,5,4,4,2,1,1.0,2.0,2.5,55.47,1307,0.0,2.0,10
2,2,20,1,2,2,40,2,4,3,3,2,1,1.0,2.0,2.03,57.5,16828,0.0,1.0,10
2,2,21,1,2,3,47,10,3,2,2,2,1,1.0,2.0,1.95,59.45,4633,0.0,1.0,10
2,2,22,1,2,4,49,37,3,2,4,0,0,0.0,0.0,0.0,59.45,2645,,,10
2,2,23,1,1,1,11,15,5,2,5,1,1,1.0,2.0,1.61,61.06,4190,0.0,,10
2,2,24,1,1,2,25,17,5,4,4,2,1,2.0,1.0,4.03,65.09,10900,1.0,2.0,10
2,2,25,1,1,3,44,37,4,5,5,2,1,2.0,1.0,3.84,68.93,7197,1.0,1.0,10
2,2,26,1,2,1,24,17,4,3,4,1,1,2.0,1.0,4.08,73.01,1275,1.0,2.0,10
2,2,27,1,2,2,24,54,5,4,4,2,1,1.0,2.0,2.77,75.78,3877,0.0,2.0,10
2,2,28,1,2,3,45,35,5,2,2,2,1,1.0,2.0,1.67,77.45,1974,0.0,1.0,10
2,2,29,1,1,1,42,44,3,5,5,2,1,2.0,1.0,4.1,81.55,2679,1.0,1.0,10
2,2,30,1,1,2,42,1,3,5,5,2,1,2.0,1.0,4.15,85.7,1969,1.0,1.0,10
2,2,31,1,1,3,40,43,3,4,4,2,1,2.0,1.0,3.81,89.51,2864,1.0,1.0,10
2,2,32,1,1,4,24,13,2,4,4,2,1,2.0,1.0,3.83,93.34,1163,1.0,1.0,10
2,2,33,1,1,5,46,54,2,3,4,0,0,0.0,0.0,0.0,93.34,3514,,,10
2,2,34,1,2,1,9,49,3,5,3,1,1,2.0,1.0,4.07,97.41,8631,1.0,,10
2,2,35,1,2,2,42,16,2,4,2,1,1,2.0,1.0,3.95,101.36,3330,1.0,1.0,10
2,2,36,1,1,1,35,32,5,3,4,0,0,0.0,0.0,0.0,101.36,2218,,,10
2,2,37,1,1,2,53,5,2,3,3,2,1,2.0,1.0,4.08,105.44,2856,1.0,,10
2,2,38,1,2,1,33,31,3,4,2,0,0,0.0,0.0,0.0,105.44,1811,,,10
2,2,39,1,2,2,8,38,4,5,4,1,1,2.0,1.0,4.1,109.54,2609,1.0,,10
2,2,40,1,2,3,33,35,3,2,2,2,1,1.0,2.0,2.34,111.88,3206,0.0,2.0,10
2,2,41,1,2,4,13,37,2,3,3,2,1,1.0,2.0,2.61,114.49,2507,0.0,1.0,10
2,2,42,1,2,5,18,50,3,2,3,1,1,2.0,1.0,4.08,118.57,4349,1.0,2.0,10
2,2,43,1,1,1,49,29,5,4,4,2,1,2.0,1.0,4.14,122.71,5924,1.0,2.0,10
2,2,44,1,1,2,45,25,4,2,2,2,1,2.0,1.0,3.86,126.57,1628,1.0,1.0,10
2,2,45,1,1,3,33,15,2,5,5,2,1,2.0,1.0,4.0,130.57,6353,1.0,1.0,10
2,2,46,1,1,4,23,52,5,3,4,0,0,0.0,0.0,0.0,130.57,3113,,,10
2,2,47,1,2,1,11,23,4,2,4,1,1,2.0,1.0,3.98,134.55,4062,1.0,,10
2,2,48,1,2,2,44,11,4,2,2,2,1,1.0,2.0,1.24,135.79,3697,0.0,2.0,10
2,2,49,1,2,3,16,48,3,5,3,1,1,2.0,1.0,4.03,139.82,5530,1.0,2.0,10
2,2,50,1,2,4,12,25,3,5,3,1,1,2.0,1.0,3.88,143.7,1578,1.0,1.0,10
2,2,51,1,2,5,25,46,2,4,4,2,1,1.0,2.0,2.67,146.37,7321,0.0,2.0,10
2,2,52,1,1,1,24,11,4,2,2,2,1,2.0,1.0,3.91,150.28,3282,1.0,1.0,10
2,2,53,1,2,1,22,4,3,4,3,1,1,2.0,1.0,4.06,154.34,3227,1.0,2.0,10
2,2,54,1,2,2,48,52,3,5,3,1,1,2.0,1.0,4.03,158.37,3040,1.0,1.0,10
2,2,55,1,2,3,7,17,4,3,4,1,1,2.0,1.0,3.89,162.26,9116,1.0,1.0,10
2,2,56,1,2,4,28,21,2,3,2,1,1,2.0,1.0,3.74,166.0,3341,1.0,1.0,10
2,2,57,1,2,5,12,16,4,3,4,1,1,2.0,1.0,3.99,169.99,1940,1.0,1.0,10
2,2,58,1,2,6,29,40,3,4,3,1,1,2.0,1.0,3.88,173.87,1708,1.0,1.0,10
2,2,59,1,1,1,52,10,4,5,5,2,1,2.0,1.0,4.07,177.94,2774,1.0,2.0,10
2,2,60,1,1,2,31,11,4,5,5,2,1,2.0,1.0,4.06,182.0,1388,1.0,1.0,10
2,2,61,1,1,3,46,21,3,2,2,2,1,2.0,1.0,4.2,186.2,3418,1.0,1.0,10
2,2,62,1,2,1,50,8,5,2,2,2,1,1.0,2.0,2.28,188.48,3959,0.0,1.0,10
2,2,63,1,2,2,35,48,3,2,3,1,1,2.0,1.0,3.92,192.4,4782,1.0,2.0,10
2,2,64,1,2,3,23,12,4,2,4,1,1,2.0,1.0,4.04,196.44,5388,1.0,1.0,10
2,2,65,1,2,4,41,26,2,5,2,1,1,2.0,1.0,3.88,200.32,4858,1.0,1.0,10
2,2,66,1,1,1,16,43,5,3,3,2,1,2.0,1.0,4.0,204.32,8134,1.0,2.0,10
2,2,67,1,1,2,6,48,4,3,3,2,1,2.0,1.0,3.99,208.31,2117,1.0,1.0,10
2,2,68,1,1,3,53,49,2,5,5,2,1,2.0,1.0,4.0,212.31,2502,1.0,1.0,10
2,2,69,1,1,4,16,45,5,3,3,2,1,2.0,1.0,3.96,216.27,3112,1.0,1.0,10
2,2,70,1,1,5,47,26,2,4,4,2,1,2.0,1.0,4.13,220.4,1153,1.0,1.0,10
2,2,71,1,1,6,39,28,3,4,4,2,1,2.0,1.0,3.78,224.18,2928,1.0,1.0,10
2,2,72,1,2,1,1,40,4,2,4,1,1,2.0,1.0,4.05,228.23,2992,1.0,2.0,10
2,2,73,1,1,1,20,44,2,5,5,2,1,2.0,1.0,4.11,232.34,4438,1.0,2.0,10
2,2,74,1,1,2,52,45,2,3,3,2,1,2.0,1.0,4.09,236.43,5090,1.0,1.0,10
2,2,75,1,1,3,12,20,5,4,4,2,1,2.0,1.0,4.07,240.5,1852,1.0,1.0,10
2,2,76,1,1,4,28,8,4,3,3,2,1,2.0,1.0,4.0,244.5,1607,1.0,1.0,10
2,2,77,1,1,5,23,48,2,3,3,2,1,2.0,1.0,4.08,248.58,3077,1.0,1.0,10
2,2,78,1,2,1,53,52,5,2,5,1,1,2.0,1.0,4.07,252.65,1544,1.0,2.0,10
2,2,79,1,2,2,15,52,2,4,2,1,1,2.0,1.0,3.97,256.62,3568,1.0,1.0,10
2,2,80,1,1,1,24,31,4,3,3,2,1,2.0,1.0,3.96,260.58,2606,1.0,2.0,10
2,2,81,1,1,2,9,32,3,2,2,2,1,2.0,1.0,3.97,264.55,2692,1.0,1.0,10
2,2,82,1,2,1,8,39,5,2,5,1,1,2.0,1.0,3.83,268.38,3237,1.0,2.0,10
2,2,83,1,2,2,28,40,5,3,5,1,1,2.0,1.0,3.97,272.35,5145,1.0,1.0,10
2,2,84,1,2,3,34,16,5,4,5,1,1,2.0,1.0,4.01,276.36,2153,1.0,1.0,10
2,2,1,2,2,1,24,21,2,3,2,1,1,2.0,1.0,4.04,280.4,6783,1.0,,10
2,2,2,2,2,2,46,16,3,5,5,2,1,1.0,2.0,2.68,283.08,6454,0.0,2.0,10
2,2,3,2,2,3,39,31,4,3,4,1,1,2.0,1.0,3.96,287.04,2633,1.0,2.0,10
2,2,4,2,2,4,37,21,4,5,4,1,1,2.0,1.0,4.07,291.11,3364,1.0,1.0,10
2,2,5,2,1,1,39,14,2,4,4,2,1,2.0,1.0,4.09,295.2,2234,1.0,2.0,10
2,2,6,2,1,2,29,22,5,2,5,1,1,1.0,2.0,2.44,297.64,1471,0.0,2.0,10
2,2,7,2,1,3,17,42,5,4,4,2,1,2.0,1.0,3.88,301.52,2481,1.0,2.0,10
2,2,8,2,1,4,1,12,5,4,4,2,1,2.0,1.0,4.02,305.54,1931,1.0,1.0,10
2,2,9,2,1,5,14,41,2,3,3,2,1,2.0,1.0,4.03,309.57,3395,1.0,1.0,10
2,2,10,2,2,1,50,52,5,4,5,1,1,2.0,1.0,3.88,313.45,5985,1.0,2.0,10
2,2,11,2,1,1,39,13,5,3,3,2,1,2.0,1.0,3.91,317.36,1695,1.0,2.0,10
2,2,12,2,2,1,12,46,5,2,5,1,1,2.0,1.0,4.13,321.49,2857,1.0,2.0,10
2,2,13,2,2,2,1,17,2,5,2,1,1,2.0,1.0,3.98,325.47,1549,1.0,1.0,10
2,2,14,2,2,3,27,8,4,2,4,1,1,2.0,1.0,4.05,329.52,6692,1.0,1.0,10
2,2,15,2,2,4,26,40,5,3,5,1,1,2.0,1.0,4.01,333.53,5230,1.0,1.0,10
2,2,16,2,2,5,6,42,4,5,4,1,1,2.0,1.0,3.93,337.46,2522,1.0,1.0,10
2,2,17,2,2,6,48,45,5,4,5,1,1,2.0,1.0,3.93,341.39,3378,1.0,1.0,10
2,2,18,2,1,1,54,10,4,5,5,2,1,2.0,1.0,4.05,345.44,2137,1.0,2.0,10
2,2,19,2,1,2,20,35,2,4,4,2,1,2.0,1.0,3.89,349.33,4096,1.0,1.0,10
2,2,20,2,1,3,33,21,4,5,5,2,1,2.0,1.0,4.09,353.42,1842,1.0,1.0,10
2,2,21,2,1,4,50,32,2,3,3,2,1,2.0,1.0,4.07,357.49,3917,1.0,1.0,10
2,2,22,2,2,1,12,13,3,5,3,1,1,2.0,1.0,3.9,361.39,4494,1.0,2.0,10
2,2,23,2,2,2,29,1,3,4,4,2,1,1.0,2.0,1.87,363.26,1888,0.0,2.0,10
2,2,24,2,2,3,17,1,3,2,2,2,1,1.0,2.0,1.44,364.7,1338,0.0,1.0,10
2,2,25,2,2,4,30,37,2,3,2,1,1,2.0,1.0,3.74,368.44,1866,1.0,2.0,10
2,2,26,2,2,5,2,13,5,3,5,1,1,2.0,1.0,4.12,372.56,2437,1.0,1.0,10
2,2,27,2,1,1,51,30,3,4,4,2,1,2.0,1.0,3.94,376.5,1657,1.0,2.0,10
2,2,28,2,1,2,42,19,4,2,2,2,1,2.0,1.0,4.04,380.54,2972,1.0,1.0,10
2,2,29,2,1,3,35,20,4,3,3,2,1,2.0,1.0,4.03,384.57,3650,1.0,1.0,10
2,2,30,2,1,4,2,33,2,5,5,2,1,2.0,1.0,4.0,388.57,1558,1.0,1.0,10
2,2,31,2,1,5,39,42,3,5,5,2,1,2.0,1.0,3.88,392.45,3085,1.0,1.0,10
2,2,32,2,1,6,27,6,3,2,2,2,1,2.0,1.0,3.89,396.34,2431,1.0,1.0,10
2,2,33,2,2,1,8,14,3,2,3,1,1,2.0,1.0,3.96,400.3,1706,1.0,2.0,10
2,2,34,2,2,2,26,2,2,5,2,1,1,2.0,1.0,3.86,404.16,3524,1.0,1.0,10
2,2,35,2,1,1,19,51,2,5,5,2,1,2.0,1.0,3.88,408.04,4204,1.0,2.0,10
2,2,36,2,1,2,45,41,2,5,5,2,1,2.0,1.0,4.17,412.21,3418,1.0,1.0,10
2,2,37,2,2,1,13,27,3,2,3,1,1,2.0,1.0,4.01,416.22,1422,1.0,2.0,10
2,2,38,2,2,2,41,24,2,4,2,1,1,2.0,1.0,3.86,420.08,3499,1.0,1.0,10
2,2,39,2,2,3,3,30,2,3,2,1,1,2.0,1.0,4.0,424.08,1820,1.0,1.0,10
2,2,40,2,1,1,48,40,2,5,5,2,1,2.0,1.0,3.87,427.95,2721,1.0,2.0,10
2,2,41,2,1,2,10,28,2,5,2,1,1,1.0,2.0,1.36,429.31,1017,0.0,2.0,10
2,2,42,2,1,3,11,34,3,4,3,1,1,1.0,2.0,1.88,431.19,1229,0.0,1.0,10
2,2,43,2,2,1,10,52,3,4,3,1,1,2.0,1.0,4.11,435.3,2577,1.0,1.0,10
2,2,44,2,1,1,23,15,5,2,5,1,1,1.0,2.0,2.06,437.36,2160,0.0,1.0,10
2,2,45,2,1,2,7,50,3,5,3,1,1,1.0,2.0,2.31,439.67,6448,0.0,1.0,10
2,2,46,2,1,3,15,50,5,3,3,2,1,2.0,1.0,3.86,443.53,1619,1.0,2.0,10
2,2,47,2,1,4,29,1,2,3,2,1,1,1.0,2.0,1.78,445.31,1576,0.0,2.0,10
2,2,48,2,2,1,5,38,3,5,3,1,1,2.0,1.0,3.97,449.28,4806,1.0,1.0,10
2,2,49,2,2,2,48,29,5,4,5,1,1,2.0,1.0,3.86,453.14,1484,1.0,1.0,10
2,2,50,2,2,3,53,14,4,2,4,1,1,2.0,1.0,3.84,456.98,2102,1.0,1.0,10
2,2,51,2,2,4,3,43,4,5,4,1,1,2.0,1.0,4.11,461.09,2119,1.0,1.0,10
2,2,52,2,1,1,21,36,3,4,4,2,1,2.0,1.0,4.0,465.09,5392,1.0,2.0,10
2,2,53,2,1,2,25,41,2,4,4,2,1,2.0,1.0,3.92,469.01,3693,1.0,1.0,10
2,2,54,2,1,3,5,40,3,2,2,2,1,2.0,1.0,4.09,473.1,5176,1.0,1.0,10
2,2,55,2,1,4,13,5,4,2,4,1,1,1.0,2.0,2.11,475.21,2878,0.0,2.0,10
2,2,56,2,1,5,3,49,2,4,4,2,1,2.0,1.0,3.88,479.09,1377,1.0,2.0,10
2,2,57,2,1,6,20,39,3,5,5,2,1,2.0,1.0,4.16,483.25,2632,1.0,1.0,10
2,2,58,2,2,1,26,53,5,4,5,1,1,2.0,1.0,4.03,487.28,1811,1.0,2.0,10
2,2,59,2,2,2,9,34,4,3,4,1,1,2.0,1.0,4.17,491.45,2113,1.0,1.0,10
2,2,60,2,2,3,22,46,4,2,4,1,1,2.0,1.0,4.13,495.58,2194,1.0,1.0,10
2,2,61,2,1,1,7,8,2,4,4,2,1,2.0,1.0,3.92,499.5,2768,1.0,2.0,10
2,2,62,2,1,2,54,25,3,4,4,2,1,2.0,1.0,3.85,503.35,1710,1.0,1.0,10
2,2,63,2,1,3,22,50,5,3,3,2,1,2.0,1.0,3.99,507.34,3432,1.0,1.0,10
2,2,64,2,2,1,19,34,4,2,4,1,1,2.0,1.0,3.96,511.3,3068,1.0,2.0,10
2,2,65,2,2,2,38,31,2,3,2,1,1,2.0,1.0,3.9,515.2,2814,1.0,1.0,10
2,2,66,2,2,3,6,13,5,4,5,1,1,2.0,1.0,4.06,519.26,2691,1.0,1.0,10
2,2,67,2,2,4,15,52,5,2,5,1,1,2.0,1.0,4.18,523.44,1573,1.0,1.0,10
2,2,68,2,2,5,42,15,4,3,4,1,1,2.0,1.0,3.94,527.38,3723,1.0,1.0,10
2,2,69,2,2,6,52,11,4,2,2,2,1,1.0,2.0,1.6,528.98,1908,0.0,2.0,10
2,2,70,2,1,1,54,44,4,3,3,2,1,2.0,1.0,3.97,532.95,7581,1.0,1.0,10
2,2,71,2,1,2,42,29,3,4,4,2,1,2.0,1.0,4.08,537.03,2155,1.0,1.0,10
2,2,72,2,1,3,19,51,3,2,2,2,1,2.0,1.0,3.9,540.93,1604,1.0,1.0,10
2,2,73,2,1,4,37,52,4,5,5,2,1,2.0,1.0,3.86,544.79,1776,1.0,1.0,10
2,2,74,2,1,5,16,23,5,2,2,2,1,2.0,1.0,3.99,548.78,2903,1.0,1.0,10
2,2,75,2,2,1,52,11,5,2,2,2,1,1.0,2.0,1.97,550.75,1768,0.0,1.0,10
2,2,76,2,2,2,46,4,3,5,3,1,1,2.0,1.0,4.06,554.81,2951,1.0,2.0,10
2,2,77,2,1,1,3,30,4,3,3,2,1,2.0,1.0,3.93,558.74,1270,1.0,2.0,10
2,2,78,2,2,1,51,29,3,2,2,2,1,1.0,2.0,1.93,560.67,1537,0.0,1.0,10
2,2,79,2,2,2,20,10,5,3,5,1,1,2.0,1.0,3.95,564.62,2313,1.0,2.0,10
2,2,80,2,2,3,44,9,5,3,5,1,1,2.0,1.0,3.99,568.61,2561,1.0,1.0,10
2,2,81,2,2,4,23,54,4,5,4,1,1,2.0,1.0,4.18,572.79,2433,1.0,1.0,10
2,2,82,2,2,5,49,32,2,4,2,1,1,2.0,1.0,3.93,576.72,2357,1.0,1.0,10
2,2,83,2,1,1,41,37,4,3,3,2,1,2.0,1.0,3.84,580.56,2468,1.0,2.0,10
2,2,84,2,1,2,15,22,5,2,2,2,1,2.0,1.0,4.06,584.62,2559,1.0,1.0,10
2,2,1,3,1,1,39,41,5,4,4,2,1,2.0,1.0,3.89,588.51,3587,1.0,,10
2,2,2,3,1,2,48,30,3,4,4,2,1,2.0,1.0,4.0,592.51,978,1.0,1.0,10
2,2,3,3,1,3,29,46,2,4,2,1,1,1.0,2.0,1.7,594.21,1168,0.0,2.0,10
2,2,4,3,2,1,2,43,4,5,4,1,1,2.0,1.0,4.06,598.27,2814,1.0,1.0,10
2,2,5,3,2,2,9,49,2,5,2,1,1,2.0,1.0,4.07,602.34,2883,1.0,1.0,10
2,2,6,3,2,3,38,33,4,5,4,1,1,2.0,1.0,3.98,606.32,3549,1.0,1.0,10
2,2,7,3,2,4,4,14,5,2,5,1,1,2.0,1.0,3.76,610.08,2373,1.0,1.0,10
2,2,8,3,2,5,36,2,2,3,2,1,1,2.0,1.0,4.02,614.1,2459,1.0,1.0,10
2,2,9,3,2,6,37,19,4,2,4,1,1,2.0,1.0,4.19,618.29,2823,1.0,1.0,10
2,2,10,3,1,1,41,16,2,3,3,2,1,2.0,1.0,4.12,622.41,3027,1.0,2.0,10
2,2,11,3,1,2,50,33,3,2,2,2,1,2.0,1.0,3.81,626.22,3112,1.0,1.0,10
2,2,12,3,1,3,13,24,5,3,3,2,1,2.0,1.0,3.99,630.21,3033,1.0,1.0,10
2,2,13,3,1,4,52,18,3,2,2,2,1,2.0,1.0,3.92,634.13,2029,1.0,1.0,10
2,2,14,3,2,1,3,27,5,2,5,1,1,2.0,1.0,3.88,638.01,1705,1.0,2.0,10
2,2,15,3,2,2,39,17,3,4,3,1,1,2.0,1.0,3.85,641.86,1867,1.0,1.0,10
2,2,16,3,2,3,35,27,4,5,4,1,1,2.0,1.0,4.03,645.89,1461,1.0,1.0,10
2,2,17,3,2,4,3,7,4,2,4,1,1,2.0,1.0,3.95,649.84,961,1.0,1.0,10
2,2,18,3,1,1,19,52,4,5,5,2,1,2.0,1.0,4.01,653.85,1864,1.0,2.0,10
2,2,19,3,2,1,38,5,2,4,2,1,1,2.0,1.0,3.96,657.81,1490,1.0,2.0,10
2,2,20,3,1,1,50,26,2,5,5,2,1,2.0,1.0,3.95,661.76,1285,1.0,2.0,10
2,2,21,3,1,2,41,14,4,3,3,2,1,2.0,1.0,4.04,665.8,2735,1.0,1.0,10
2,2,22,3,1,3,53,7,5,3,3,2,1,2.0,1.0,4.09,669.89,2126,1.0,1.0,10
2,2,23,3,1,4,48,20,3,2,2,2,1,2.0,1.0,4.25,674.14,2655,1.0,1.0,10
2,2,24,3,1,5,4,18,5,4,4,2,1,2.0,1.0,3.84,677.98,2019,1.0,1.0,10
2,2,25,3,2,1,14,2,5,4,5,1,1,2.0,1.0,3.88,681.86,2423,1.0,2.0,10
2,2,26,3,2,2,5,22,5,2,5,1,1,2.0,1.0,4.12,685.98,2906,1.0,1.0,10
2,2,27,3,2,3,32,44,5,4,5,1,1,2.0,1.0,3.95,689.93,1652,1.0,1.0,10
2,2,28,3,1,1,36,4,4,3,4,1,1,1.0,2.0,1.35,691.28,2407,0.0,1.0,10
2,2,29,3,1,2,13,51,5,4,5,1,1,1.0,2.0,2.15,693.43,1765,0.0,1.0,10
2,2,30,3,2,1,11,47,5,2,5,1,1,2.0,1.0,4.18,697.61,3731,1.0,1.0,10
2,2,31,3,2,2,47,11,4,2,2,2,1,1.0,2.0,2.33,699.94,1195,0.0,2.0,10
2,2,32,3,2,3,20,37,5,3,5,1,1,2.0,1.0,4.23,704.17,4209,1.0,2.0,10
2,2,33,3,2,4,19,52,3,5,3,1,1,2.0,1.0,4.06,708.23,2303,1.0,1.0,10
2,2,34,3,2,5,44,9,4,2,2,2,1,1.0,2.0,2.88,711.11,2192,0.0,2.0,10
2,2,35,3,1,1,3,14,4,5,5,2,1,2.0,1.0,3.96,715.07,2726,1.0,1.0,10
2,2,36,3,1,2,23,51,3,4,4,2,1,2.0,1.0,3.87,718.94,3270,1.0,1.0,10
2,2,37,3,1,3,38,21,3,5,5,2,1,2.0,1.0,3.98,722.92,3137,1.0,1.0,10
2,2,38,3,1,4,51,26,4,3,3,2,1,2.0,1.0,4.14,727.06,1986,1.0,1.0,10
2,2,39,3,1,5,4,11,5,3,3,2,1,2.0,1.0,3.87,730.93,1631,1.0,1.0,10
2,2,40,3,1,6,12,24,3,4,4,2,1,2.0,1.0,4.07,735.0,4274,1.0,1.0,10
2,2,41,3,2,1,31,1,4,5,4,1,1,2.0,1.0,3.93,738.93,4181,1.0,2.0,10
2,2,42,3,2,2,46,54,4,3,4,1,1,2.0,1.0,4.06,742.99,3203,1.0,1.0,10
2,2,43,3,1,1,15,27,4,2,2,2,1,2.0,1.0,3.87,746.86,2296,1.0,2.0,10
2,2,44,3,2,1,20,42,3,2,3,1,1,2.0,1.0,4.01,750.87,2361,1.0,2.0,10
2,2,45,3,2,2,1,19,2,5,2,1,1,2.0,1.0,3.76,754.63,1184,1.0,1.0,10
2,2,46,3,2,3,25,8,3,4,3,1,1,2.0,1.0,3.94,758.57,4502,1.0,1.0,10
2,2,47,3,1,1,3,18,2,5,2,1,1,1.0,2.0,2.22,760.79,2575,0.0,1.0,10
2,2,48,3,1,2,12,2,3,5,3,1,1,1.0,2.0,1.85,762.64,1958,0.0,1.0,10
2,2,49,3,1,3,52,36,4,3,3,2,1,2.0,1.0,4.15,766.79,4717,1.0,2.0,10
2,2,50,3,1,4,51,27,3,2,2,2,1,2.0,1.0,3.93,770.72,1342,1.0,1.0,10
2,2,51,3,2,1,24,53,3,4,4,2,1,1.0,2.0,0.9,771.62,1934,0.0,1.0,10
2,2,52,3,1,1,50,29,5,2,2,2,1,2.0,1.0,3.85,775.47,3582,1.0,1.0,10
2,2,53,3,1,2,49,40,3,2,2,2,1,2.0,1.0,4.12,779.59,2100,1.0,1.0,10
2,2,54,3,2,1,38,39,3,2,3,1,1,2.0,1.0,3.99,783.58,3173,1.0,2.0,10
2,2,55,3,2,2,26,43,2,3,2,1,1,2.0,1.0,4.04,787.62,3404,1.0,1.0,10
2,2,56,3,1,1,52,5,3,4,4,2,1,2.0,1.0,4.11,791.73,5073,1.0,2.0,10
2,2,57,3,1,2,8,42,5,3,3,2,1,2.0,1.0,3.75,795.48,4748,1.0,1.0,10
2,2,58,3,1,3,38,13,2,5,5,2,1,2.0,1.0,3.92,799.4,2627,1.0,1.0,10
2,2,59,3,1,4,20,21,5,4,4,2,1,2.0,1.0,3.92,803.32,3128,1.0,1.0,10
2,2,60,3,1,5,15,25,5,3,3,2,1,2.0,1.0,3.88,807.2,1576,1.0,1.0,10
2,2,61,3,2,1,54,38,3,5,3,1,1,2.0,1.0,3.98,811.18,4191,1.0,2.0,10
2,2,62,3,2,2,23,22,2,3,2,1,1,2.0,1.0,4.18,815.36,5629,1.0,1.0,10
2,2,63,3,2,3,20,48,5,2,5,1,1,2.0,1.0,4.0,819.36,1961,1.0,1.0,10
2,2,64,3,2,4,35,42,2,5,2,1,1,2.0,1.0,4.14,823.5,3744,1.0,1.0,10
2,2,65,3,1,1,53,14,2,5,5,2,1,2.0,1.0,3.92,827.42,2072,1.0,2.0,10
2,2,66,3,1,2,39,53,2,4,4,2,1,2.0,1.0,4.0,831.42,3651,1.0,1.0,10
2,2,67,3,1,3,48,23,2,4,4,2,1,2.0,1.0,3.91,835.33,3014,1.0,1.0,10
2,2,68,3,1,4,48,46,5,4,4,2,1,2.0,1.0,4.07,839.4,2747,1.0,1.0,10
2,2,69,3,1,5,31,29,4,3,3,2,1,2.0,1.0,3.97,843.37,1707,1.0,1.0,10
2,2,70,3,1,6,7,50,2,4,4,2,1,2.0,1.0,4.06,847.43,1540,1.0,1.0,10
2,2,71,3,2,1,5,52,2,3,2,1,1,2.0,1.0,4.08,851.51,2236,1.0,2.0,10
2,2,72,3,2,2,52,44,4,5,4,1,1,2.0,1.0,3.99,855.5,3144,1.0,1.0,10
2,2,73,3,2,3,52,17,5,3,5,1,1,2.0,1.0,4.1,859.6,1615,1.0,1.0,10
2,2,74,3,2,4,6,47,4,3,4,1,1,2.0,1.0,4.27,863.87,2572,1.0,1.0,10
2,2,75,3,2,5,37,11,2,3,3,2,1,1.0,2.0,2.25,866.12,1499,0.0,2.0,10
2,2,76,3,1,1,3,31,3,5,5,2,1,2.0,1.0,4.0,870.12,3372,1.0,1.0,10
2,2,77,3,1,2,42,28,3,5,5,2,1,2.0,1.0,4.11,874.23,2771,1.0,1.0,10
2,2,78,3,1,3,1,14,5,2,2,2,1,2.0,1.0,4.01,878.24,2433,1.0,1.0,10
2,2,79,3,2,1,20,39,4,2,4,1,1,2.0,1.0,3.87,882.11,3094,1.0,2.0,10
2,2,80,3,2,2,1,42,2,4,2,1,1,2.0,1.0,4.06,886.17,1775,1.0,1.0,10
2,2,81,3,2,3,32,37,2,3,2,1,1,2.0,1.0,4.0,890.17,3270,1.0,1.0,10
2,2,82,3,2,4,12,36,3,5,3,1,1,2.0,1.0,3.97,894.14,1034,1.0,1.0,10
2,2,83,3,2,5,35,30,2,4,2,1,1,2.0,1.0,4.15,898.29,1541,1.0,1.0,10
2,2,84,3,2,6,27,2,4,2,4,1,1,2.0,1.0,4.22,902.51,1301,1.0,1.0,10
2,2,1,4,1,1,12,37,2,5,2,1,1,1.0,2.0,1.75,904.26,1625,0.0,,10
2,2,2,4,1,2,36,49,2,3,2,1,1,1.0,2.0,2.05,906.31,3806,0.0,1.0,10
2,2,3,4,1,3,42,47,4,2,2,2,1,2.0,1.0,3.9,910.21,2211,1.0,2.0,10
2,2,4,4,1,4,22,6,3,2,2,2,1,2.0,1.0,4.08,914.29,2465,1.0,1.0,10
2,2,5,4,2,1,53,23,2,5,2,1,1,2.0,1.0,3.72,918.01,1515,1.0,2.0,10
2,2,6,4,1,1,44,50,2,4,4,2,1,2.0,1.0,4.12,922.13,2508,1.0,2.0,10
2,2,7,4,1,2,22,37,5,2,2,2,1,2.0,1.0,4.03,926.16,1605,1.0,1.0,10
2,2,8,4,1,3,36,51,2,5,5,2,1,2.0,1.0,4.03,930.19,2715,1.0,1.0,10
2,2,9,4,1,4,48,50,2,5,5,2,1,2.0,1.0,4.14,934.33,907,1.0,1.0,10
2,2,10,4,1,5,36,30,4,3,3,2,1,2.0,1.0,3.97,938.3,2357,1.0,1.0,10
2,2,11,4,1,6,17,16,2,5,5,2,1,2.0,1.0,3.98,942.28,1420,1.0,1.0,10
2,2,12,4,2,1,42,29,4,3,3,2,1,1.0,2.0,1.4,943.68,3505,0.0,1.0,10
2,2,13,4,2,2,20,34,3,5,3,1,1,2.0,1.0,3.8,947.48,2474,1.0,2.0,10
2,2,14,4,2,3,45,11,3,4,3,1,1,2.0,1.0,3.92,951.4,2813,1.0,1.0,10
2,2,15,4,2,4,9,2,2,3,3,2,1,1.0,2.0,2.13,953.53,1977,0.0,2.0,10
2,2,16,4,2,5,32,45,4,3,4,1,1,2.0,1.0,3.94,957.47,1600,1.0,2.0,10
2,2,17,4,2,6,10,3,5,2,5,1,1,2.0,1.0,3.84,961.31,2237,1.0,1.0,10
2,2,18,4,1,1,38,23,5,4,4,2,1,2.0,1.0,4.13,965.44,3417,1.0,2.0,10
2,2,19,4,2,1,7,5,3,2,3,1,1,2.0,1.0,3.92,969.36,1405,1.0,2.0,10
2,2,20,4,2,2,46,2,2,4,2,1,1,2.0,1.0,4.0,973.36,3340,1.0,1.0,10
2,2,21,4,2,3,14,9,3,2,3,1,1,2.0,1.0,4.0,977.36,1643,1.0,1.0,10
2,2,22,4,2,4,34,3,3,5,3,1,1,2.0,1.0,3.97,981.33,1735,1.0,1.0,10
2,2,23,4,1,1,20,7,3,2,3,1,1,1.0,2.0,2.19,983.52,3494,0.0,1.0,10
2,2,24,4,1,2,12,43,3,5,5,2,1,2.0,1.0,3.97,987.49,4144,1.0,2.0,10
2,2,25,4,1,3,21,7,5,4,4,2,1,2.0,1.0,3.8,991.29,4456,1.0,1.0,10
2,2,26,4,2,1,7,48,4,2,2,2,1,1.0,2.0,1.52,992.81,3740,0.0,1.0,10
2,2,27,4,2,2,10,21,3,5,3,1,1,2.0,1.0,4.03,996.84,1524,1.0,2.0,10
2,2,28,4,2,3,47,40,2,4,5,0,0,0.0,0.0,0.0,996.84,1724,,,10
2,2,29,4,1,1,9,35,2,4,2,1,1,1.0,2.0,1.41,998.25,1082,0.0,,10
2,2,30,4,1,2,16,45,4,3,3,2,1,2.0,1.0,3.96,1002.21,3276,1.0,2.0,10
2,2,31,4,1,3,39,11,3,4,4,2,1,2.0,1.0,3.89,1006.1,3246,1.0,1.0,10
2,2,32,4,1,4,35,11,2,4,4,2,1,2.0,1.0,3.86,1009.96,1338,1.0,1.0,10
2,2,33,4,1,5,36,18,5,3,3,2,1,2.0,1.0,3.88,1013.84,2514,1.0,1.0,10
2,2,34,4,2,1,52,13,3,2,3,1,1,2.0,1.0,3.95,1017.79,1347,1.0,2.0,10
2,2,35,4,2,2,43,45,5,3,5,1,1,2.0,1.0,4.02,1021.81,2570,1.0,1.0,10
2,2,36,4,1,1,26,2,3,4,4,2,1,2.0,1.0,3.99,1025.8,2352,1.0,2.0,10
2,2,37,4,1,2,12,34,3,5,4,0,0,0.0,0.0,0.0,1025.8,1824,,,10
2,2,38,4,2,1,54,4,5,4,5,1,1,2.0,1.0,4.13,1029.93,1953,1.0,,10
2,2,39,4,2,2,11,20,5,4,5,1,1,2.0,1.0,3.97,1033.9,1448,1.0,1.0,10
2,2,40,4,2,3,41,33,5,3,5,1,1,2.0,1.0,3.82,1037.72,3444,1.0,1.0,10
2,2,41,4,2,4,15,50,5,2,5,1,1,2.0,1.0,4.0,1041.72,5000,1.0,1.0,10
2,2,42,4,2,5,45,40,5,3,5,1,1,2.0,1.0,4.01,1045.73,1741,1.0,1.0,10
2,2,43,4,1,1,14,52,4,5,5,2,1,2.0,1.0,4.04,1049.77,4685,1.0,2.0,10
2,2,44,4,1,2,33,54,4,2,2,2,1,2.0,1.0,4.06,1053.83,1463,1.0,1.0,10
2,2,45,4,1,3,26,28,5,2,2,2,1,2.0,1.0,4.15,1057.98,970,1.0,1.0,10
2,2,46,4,1,4,38,22,5,3,3,2,1,2.0,1.0,3.94,1061.92,2240,1.0,1.0,10
2,2,47,4,2,1,31,19,4,2,4,1,1,2.0,1.0,4.03,1065.95,1492,1.0,2.0,10
2,2,48,4,2,2,44,25,4,5,4,1,1,2.0,1.0,4.0,1069.95,3126,1.0,1.0,10
2,2,49,4,2,3,17,43,3,4,3,1,1,2.0,1.0,3.93,1073.88,3631,1.0,1.0,10
2,2,50,4,2,4,41,14,4,5,4,1,1,2.0,1.0,4.25,1078.13,5627,1.0,1.0,10
2,2,51,4,2,5,52,35,4,5,4,1,1,2.0,1.0,3.97,1082.1,2512,1.0,1.0,10
2,2,52,4,1,1,31,8,5,3,5,1,1,1.0,2.0,1.34,1083.44,2352,0.0,1.0,10
2,2,53,4,2,1,51,27,2,3,2,1,1,2.0,1.0,4.21,1087.65,2175,1.0,1.0,10
2,2,54,4,2,2,9,29,5,4,5,1,1,2.0,1.0,4.04,1091.69,1678,1.0,1.0,10
2,2,55,4,2,3,11,36,4,5,4,1,1,2.0,1.0,3.87,1095.56,2065,1.0,1.0,10
2,2,56,4,2,4,21,23,2,3,2,1,1,2.0,1.0,4.07,1099.63,2412,1.0,1.0,10
2,2,57,4,2,5,27,7,3,4,3,1,1,2.0,1.0,4.15,1103.78,1537,1.0,1.0,10
2,2,58,4,2,6,34,27,5,2,2,2,1,1.0,2.0,1.58,1105.36,1649,0.0,2.0,10
2,2,59,4,1,1,1,2,4,2,4,1,1,1.0,2.0,2.06,1107.42,1140,0.0,2.0,10
2,2,60,4,1,2,31,15,2,3,2,1,1,1.0,2.0,1.93,1109.35,2411,0.0,1.0,10
2,2,61,4,1,3,4,43,3,2,2,2,1,2.0,1.0,3.86,1113.21,2217,1.0,2.0,10
2,2,62,4,2,1,26,10,2,4,2,1,1,2.0,1.0,4.14,1117.35,3790,1.0,2.0,10
2,2,63,4,2,2,51,19,2,5,2,1,1,2.0,1.0,4.0,1121.35,1243,1.0,1.0,10
2,2,64,4,2,3,25,38,3,5,3,1,1,2.0,1.0,4.06,1125.41,5047,1.0,1.0,10
2,2,65,4,2,4,33,45,4,3,5,0,0,0.0,0.0,0.0,1125.41,3843,,,10
2,2,66,4,1,1,1,20,5,3,3,2,1,2.0,1.0,3.92,1129.33,3404,1.0,,10
2,2,67,4,1,2,3,1,5,4,4,2,1,2.0,1.0,3.92,1133.25,1082,1.0,1.0,10
2,2,68,4,1,3,33,32,3,4,4,2,1,2.0,1.0,4.04,1137.29,1947,1.0,1.0,10
2,2,69,4,1,4,44,7,2,5,5,2,1,2.0,1.0,4.01,1141.3,2835,1.0,1.0,10
2,2,70,4,1,5,7,18,5,2,2,2,1,2.0,1.0,4.22,1145.52,2623,1.0,1.0,10
2,2,71,4,1,6,22,33,2,3,3,2,1,2.0,1.0,3.97,1149.49,2459,1.0,1.0,10
2,2,72,4,2,1,26,18,3,2,4,0,0,0.0,0.0,0.0,1149.49,4271,,,10
2,2,73,4,1,1,12,4,5,2,5,1,1,1.0,2.0,3.04,1152.53,1175,0.0,,10
2,2,74,4,1,2,7,18,4,2,4,1,1,1.0,2.0,2.71,1155.24,2982,0.0,1.0,10
2,2,75,4,1,3,43,40,4,3,3,2,1,2.0,1.0,3.77,1159.01,3300,1.0,2.0,10
2,2,76,4,1,4,28,39,3,4,4,2,1,2.0,1.0,3.8,1162.81,2621,1.0,1.0,10
2,2,77,4,1,5,50,49,5,4,4,2,1,2.0,1.0,3.93,1166.74,1282,1.0,1.0,10
2,2,78,4,2,1,13,45,2,3,2,1,1,2.0,1.0,3.98,1170.72,2716,1.0,2.0,10
2,2,79,4,2,2,7,28,3,5,5,2,1,1.0,2.0,2.0,1172.72,2093,0.0,2.0,10
2,2,80,4,1,1,39,50,4,5,5,2,1,2.0,1.0,4.1,1176.82,1558,1.0,1.0,10
2,2,81,4,1,2,16,9,4,2,2,2,1,2.0,1.0,3.91,1180.73,2117,1.0,1.0,10
2,2,82,4,2,1,39,1,2,4,2,1,1,2.0,1.0,3.91,1184.64,2774,1.0,2.0,10
2,2,83,4,2,2,53,52,4,5,4,1,1,2.0,1.0,3.98,1188.62,4164,1.0,1.0,10
2,2,84,4,2,3,21,36,4,3,4,1,1,2.0,1.0,4.0,1192.62,2171,1.0,1.0,10
3,4,1,1,1,1,11,41,3,5,3,1,1,2.0,2.0,3.8,3.8,1935,0.0,,100
3,4,2,1,1,2,19,51,5,3,5,1,1,2.0,2.0,3.22,7.02,4885,0.0,1.0,100
3,4,3,1,1,3,4,19,2,4,4,2,1,1.0,1.0,2.01,9.03,5447,1.0,2.0,100
3,4,4,1,1,4,8,53,2,5,5,2,1,1.0,1.0,2.03,11.06,13101,1.0,1.0,100
3,4,5,1,1,5,52,27,5,2,2,2,1,1.0,1.0,1.86,12.92,5013,1.0,1.0,100
3,4,6,1,2,1,32,45,2,3,3,2,1,2.0,2.0,4.56,17.48,7964,0.0,1.0,100
3,4,7,1,2,2,20,34,5,3,5,1,1,1.0,1.0,2.14,19.62,7534,1.0,2.0,100
3,4,8,1,1,1,32,49,2,4,2,1,1,2.0,2.0,3.98,23.6,3127,0.0,1.0,100
3,4,9,1,1,2,54,30,3,4,4,2,1,1.0,1.0,2.04,25.64,4438,1.0,2.0,100
3,4,10,1,1,3,25,42,2,5,2,1,1,2.0,2.0,4.08,29.72,5269,0.0,2.0,100
3,4,11,1,1,4,39,26,2,4,4,2,1,1.0,1.0,1.98,31.7,6467,1.0,2.0,100
3,4,12,1,2,1,33,35,3,5,3,1,1,1.0,1.0,2.09,33.79,10542,1.0,2.0,100
3,4,13,1,2,2,8,21,2,5,2,1,1,1.0,1.0,1.93,35.72,2295,1.0,1.0,100
3,4,14,1,2,3,9,30,2,5,2,1,1,1.0,1.0,2.26,37.98,5175,1.0,1.0,100
3,4,15,1,2,4,47,26,2,3,3,2,1,2.0,2.0,3.94,41.92,9641,0.0,2.0,100
3,4,16,1,1,1,13,29,3,5,3,1,1,2.0,2.0,4.05,45.97,18435,0.0,2.0,100
3,4,17,1,1,2,12,45,3,4,3,1,1,2.0,2.0,4.5,50.47,1533,0.0,1.0,100
3,4,18,1,2,1,18,32,4,5,4,1,1,1.0,1.0,2.01,52.48,4767,1.0,1.0,100
3,4,19,1,1,1,9,18,3,4,3,1,1,2.0,2.0,3.95,56.43,1508,0.0,1.0,100
3,4,20,1,1,2,14,29,2,4,2,1,1,2.0,2.0,3.61,60.04,4246,0.0,1.0,100
3,4,21,1,1,3,40,49,3,4,3,1,1,2.0,2.0,4.14,64.18,3239,0.0,1.0,100
3,4,22,1,1,4,5,26,4,5,4,1,1,2.0,2.0,3.37,67.55,2415,0.0,1.0,100
3,4,23,1,1,5,26,11,4,2,4,1,1,2.0,2.0,4.34,71.89,4953,0.0,1.0,100
3,4,24,1,1,6,1,19,3,2,2,2,1,1.0,1.0,2.19,74.08,2795,1.0,2.0,100
3,4,25,1,2,1,39,16,2,3,2,1,1,1.0,1.0,1.92,76.0,2191,1.0,2.0,100
3,4,26,1,2,2,34,11,5,4,5,1,1,1.0,1.0,2.1,78.1,5109,1.0,1.0,100
3,4,27,1,2,3,20,51,4,2,4,1,1,1.0,1.0,2.15,80.25,1965,1.0,1.0,100
3,4,28,1,2,4,19,35,5,2,5,1,1,1.0,1.0,1.81,82.06,3176,1.0,1.0,100
3,4,29,1,2,5,4,45,5,2,5,1,1,1.0,1.0,1.83,83.89,2160,1.0,1.0,100
3,4,30,1,2,6,7,3,2,3,3,2,1,2.0,2.0,4.27,88.16,3599,0.0,2.0,100
3,4,31,1,1,1,48,15,4,3,3,2,1,1.0,1.0,1.95,90.11,4949,1.0,1.0,100
3,4,32,1,2,1,45,54,3,5,3,1,1,1.0,1.0,2.08,92.19,1374,1.0,2.0,100
3,4,33,1,2,2,42,30,5,4,4,2,1,2.0,2.0,4.38,96.57,3884,0.0,2.0,100
3,4,34,1,2,3,29,26,4,2,4,1,1,1.0,1.0,2.08,98.65,8870,1.0,2.0,100
3,4,35,1,2,4,27,13,3,2,3,1,1,1.0,1.0,2.15,100.8,5828,1.0,1.0,100
3,4,36,1,2,5,14,19,2,5,5,2,1,2.0,2.0,4.32,105.12,2893,0.0,2.0,100
3,4,37,1,1,1,8,16,4,2,4,1,1,2.0,2.0,4.56,109.68,1870,0.0,2.0,100
3,4,38,1,1,2,5,14,2,4,2,1,1,2.0,2.0,3.43,113.11,1575,0.0,1.0,100
3,4,39,1,1,3,51,42,4,3,4,1,1,2.0,2.0,3.99,117.1,2054,0.0,1.0,100
3,4,40,1,2,1,15,29,3,5,3,1,1,1.0,1.0,1.98,119.08,5344,1.0,1.0,100
3,4,41,1,2,2,48,26,4,3,4,1,1,1.0,1.0,1.81,120.89,5412,1.0,1.0,100
3,4,42,1,2,3,46,5,3,5,3,1,1,1.0,1.0,2.03,122.92,2709,1.0,1.0,100
3,4,43,1,1,1,15,1,2,3,2,1,1,2.0,2.0,3.5,126.42,4215,0.0,1.0,100
3,4,44,1,1,2,27,25,5,3,3,2,1,1.0,1.0,2.17,128.59,3026,1.0,2.0,100
3,4,45,1,2,1,24,42,5,2,2,2,1,2.0,2.0,3.62,132.21,11791,0.0,1.0,100
3,4,46,1,2,2,6,53,4,2,4,1,1,1.0,1.0,2.06,134.27,1679,1.0,2.0,100
3,4,47,1,2,3,11,1,3,5,3,1,1,1.0,1.0,2.03,136.3,2526,1.0,1.0,100
3,4,48,1,2,4,32,46,2,5,2,1,1,1.0,1.0,1.89,138.19,8544,1.0,1.0,100
3,4,49,1,2,5,46,11,4,5,4,1,1,1.0,1.0,1.74,139.93,4288,1.0,1.0,100
3,4,50,1,2,6,42,33,5,3,3,2,1,2.0,2.0,3.97,143.9,3489,0.0,2.0,100
3,4,51,1,1,1,46,23,3,2,2,2,1,1.0,1.0,1.88,145.78,1820,1.0,1.0,100
3,4,52,1,1,2,28,20,5,2,5,1,1,2.0,2.0,4.29,150.07,5888,0.0,2.0,100
3,4,53,1,1,3,52,49,4,3,3,2,1,1.0,1.0,2.06,152.13,8733,1.0,2.0,100
3,4,54,1,1,4,16,41,2,3,2,1,1,2.0,2.0,4.8,156.93,4863,0.0,2.0,100
3,4,55,1,2,1,28,17,5,3,3,2,1,2.0,2.0,4.28,161.21,3933,0.0,2.0,100
3,4,56,1,2,2,15,36,3,2,3,1,1,1.0,1.0,1.92,163.13,7710,1.0,2.0,100
3,4,57,1,2,3,43,48,4,3,3,2,1,2.0,2.0,4.18,167.31,2137,0.0,2.0,100
3,4,58,1,2,4,44,25,4,3,3,2,1,2.0,2.0,3.52,170.83,1224,0.0,1.0,100
3,4,59,1,1,1,20,16,4,2,2,2,1,1.0,1.0,2.0,172.83,5869,1.0,1.0,100
3,4,60,1,2,1,44,31,4,3,4,1,1,1.0,1.0,1.99,174.82,2302,1.0,2.0,100
3,4,61,1,2,2,9,22,3,2,2,2,1,2.0,2.0,4.0,178.82,1572,0.0,2.0,100
3,4,62,1,2,3,39,9,3,2,2,2,1,2.0,2.0,3.85,182.67,1544,0.0,1.0,100
3,4,63,1,2,4,2,28,4,5,4,1,1,1.0,1.0,2.13,184.8,4392,1.0,2.0,100
3,4,64,1,2,5,34,49,4,2,2,2,1,2.0,2.0,3.12,187.92,2375,0.0,2.0,100
3,4,65,1,1,1,11,43,2,5,2,1,1,2.0,2.0,4.2,192.12,2279,0.0,2.0,100
3,4,66,1,1,2,17,33,2,4,2,1,1,2.0,2.0,4.42,196.54,3557,0.0,1.0,100
3,4,67,1,1,3,45,43,2,3,2,1,1,2.0,2.0,4.34,200.88,645,0.0,1.0,100
3,4,68,1,2,1,52,4,5,2,5,1,1,1.0,1.0,2.07,202.95,6533,1.0,1.0,100
3,4,69,1,2,2,34,14,4,5,4,1,1,1.0,1.0,2.0,204.95,2319,1.0,1.0,100
3,4,70,1,1,1,2,16,5,4,5,1,1,2.0,2.0,4.32,209.27,4485,0.0,1.0,100
3,4,71,1,1,2,7,5,5,4,5,1,1,2.0,2.0,4.27,213.54,4054,0.0,1.0,100
3,4,72,1,1,3,2,52,4,5,4,1,1,2.0,2.0,3.88,217.42,2957,0.0,1.0,100
3,4,73,1,1,4,23,46,5,4,5,1,1,2.0,2.0,3.82,221.24,5405,0.0,1.0,100
3,4,74,1,1,5,9,50,5,3,5,1,1,2.0,2.0,3.86,225.1,894,0.0,1.0,100
3,4,75,1,2,1,13,29,5,4,5,1,1,1.0,1.0,1.83,226.93,2884,1.0,1.0,100
3,4,76,1,1,1,54,19,3,4,4,2,1,1.0,1.0,1.97,228.9,5208,1.0,2.0,100
3,4,77,1,1,2,28,37,3,4,3,1,1,2.0,2.0,4.06,232.96,5048,0.0,2.0,100
3,4,78,1,1,3,12,32,5,3,3,2,1,1.0,1.0,2.04,235.0,7301,1.0,2.0,100
3,4,79,1,1,4,51,37,5,2,2,2,1,1.0,1.0,2.17,237.17,10143,1.0,1.0,100
3,4,80,1,1,5,36,48,3,2,3,1,1,2.0,2.0,3.83,241.0,2445,0.0,2.0,100
3,4,81,1,1,6,47,31,5,4,4,2,1,1.0,1.0,2.07,243.07,3679,1.0,2.0,100
3,4,82,1,2,1,47,54,3,4,3,1,1,1.0,1.0,2.09,245.16,4341,1.0,2.0,100
3,4,83,1,2,2,34,41,4,5,5,2,1,2.0,2.0,4.44,249.6,5806,0.0,2.0,100
3,4,84,1,2,3,36,13,2,4,4,2,1,2.0,2.0,3.53,253.13,4591,0.0,1.0,100
3,4,1,2,1,1,35,27,3,2,3,1,1,2.0,2.0,4.1,257.23,6101,0.0,,100
3,4,2,2,1,2,12,3,4,2,4,1,1,2.0,2.0,4.11,261.34,1500,0.0,1.0,100
3,4,3,2,2,1,17,27,2,5,2,1,1,1.0,1.0,1.88,263.22,2196,1.0,1.0,100
3,4,4,2,2,2,10,20,3,4,3,1,1,1.0,1.0,1.91,265.13,4357,1.0,1.0,100
3,4,5,2,1,1,19,31,5,4,5,1,1,2.0,2.0,4.51,269.64,4119,0.0,1.0,100
3,4,6,2,1,2,16,9,2,5,2,1,1,2.0,2.0,3.94,273.58,3390,0.0,1.0,100
3,4,7,2,1,3,12,39,3,2,3,1,1,2.0,2.0,4.18,277.76,1608,0.0,1.0,100
3,4,8,2,1,4,32,35,4,3,4,1,1,2.0,2.0,4.04,281.8,4147,0.0,1.0,100
3,4,9,2,2,1,51,30,4,2,4,1,1,1.0,1.0,1.93,283.73,2304,1.0,1.0,100
3,4,10,2,2,2,6,2,4,3,3,2,1,2.0,2.0,3.74,287.47,2254,0.0,2.0,100
3,4,11,2,2,3,52,26,4,3,4,1,1,1.0,1.0,2.05,289.52,2951,1.0,2.0,100
3,4,12,2,2,4,17,2,4,2,2,2,1,2.0,2.0,3.55,293.07,3750,0.0,2.0,100
3,4,13,2,1,1,48,9,2,5,5,2,1,1.0,1.0,2.09,295.16,2477,1.0,1.0,100
3,4,14,2,1,2,39,48,2,3,2,1,1,2.0,2.0,4.27,299.43,6725,0.0,2.0,100
3,4,15,2,1,3,11,45,2,4,2,1,1,2.0,2.0,3.61,303.04,1718,0.0,1.0,100
3,4,16,2,2,1,8,34,3,2,3,1,1,1.0,1.0,1.97,305.01,2165,1.0,1.0,100
3,4,17,2,2,2,27,29,5,2,5,1,1,1.0,1.0,1.86,306.87,9973,1.0,1.0,100
3,4,18,2,2,3,37,11,5,3,3,2,1,2.0,2.0,2.96,309.83,1832,0.0,2.0,100
3,4,19,2,2,4,18,3,5,3,3,2,1,2.0,2.0,4.46,314.29,3199,0.0,1.0,100
3,4,20,2,2,5,5,1,5,4,5,1,1,1.0,1.0,1.94,316.23,2015,1.0,2.0,100
3,4,21,2,1,1,38,8,4,3,3,2,1,1.0,1.0,2.04,318.27,2423,1.0,2.0,100
3,4,22,2,1,2,49,7,4,5,5,2,1,1.0,1.0,2.03,320.3,2766,1.0,1.0,100
3,4,23,2,1,3,4,31,3,4,3,1,1,2.0,2.0,4.01,324.31,2382,0.0,2.0,100
3,4,24,2,1,4,28,11,2,4,2,1,1,2.0,2.0,3.53,327.84,3838,0.0,1.0,100
3,4,25,2,1,5,49,54,4,2,4,1,1,2.0,2.0,3.55,331.39,3134,0.0,1.0,100
3,4,26,2,1,6,15,46,2,5,2,1,1,2.0,2.0,3.82,335.21,2631,0.0,1.0,100
3,4,27,2,2,1,44,27,2,3,3,2,1,2.0,2.0,3.44,338.65,4033,0.0,2.0,100
3,4,28,2,2,2,24,41,2,3,3,2,1,2.0,2.0,3.5,342.15,2037,0.0,1.0,100
3,4,29,2,2,3,25,17,4,2,2,2,1,2.0,2.0,4.69,346.84,6070,0.0,1.0,100
3,4,30,2,1,1,8,20,2,4,2,1,1,2.0,2.0,4.03,350.87,1440,0.0,2.0,100
3,4,31,2,1,2,3,46,5,3,3,2,1,1.0,1.0,1.86,352.73,3685,1.0,2.0,100
3,4,32,2,1,3,22,36,4,3,3,2,1,1.0,1.0,2.0,354.73,3047,1.0,1.0,100
3,4,33,2,1,4,15,17,5,3,5,1,1,2.0,2.0,3.47,358.2,3151,0.0,2.0,100
3,4,34,2,1,5,50,34,3,5,5,2,1,1.0,1.0,1.84,360.04,4007,1.0,2.0,100
3,4,35,2,2,1,46,23,2,4,4,2,1,2.0,2.0,3.88,363.92,1111,0.0,1.0,100
3,4,36,2,1,1,41,48,4,5,4,1,1,2.0,2.0,4.45,368.37,4976,0.0,2.0,100
3,4,37,2,2,1,50,45,3,4,4,2,1,2.0,2.0,4.06,372.43,5150,0.0,2.0,100
3,4,38,2,2,2,50,8,2,3,3,2,1,2.0,2.0,4.31,376.74,2703,0.0,1.0,100
3,4,39,2,2,3,37,26,2,4,4,2,1,2.0,2.0,3.45,380.19,2037,0.0,1.0,100
3,4,40,2,2,4,1,38,3,4,3,1,1,1.0,1.0,1.95,382.14,5261,1.0,2.0,100
3,4,41,2,2,5,53,14,3,2,3,1,1,1.0,1.0,1.97,384.11,11811,1.0,1.0,100
3,4,42,2,2,6,20,54,4,5,4,1,1,1.0,1.0,1.86,385.97,3386,1.0,1.0,100
3,4,43,2,1,1,47,41,5,2,3,0,0,0.0,0.0,0.0,385.97,12814,,,100
3,4,44,2,2,1,44,21,2,5,2,1,1,1.0,1.0,1.84,387.81,8220,1.0,,100
3,4,45,2,2,2,28,20,4,3,4,1,1,1.0,1.0,2.11,389.92,1983,1.0,1.0,100
3,4,46,2,2,3,42,38,4,2,2,2,1,2.0,2.0,4.01,393.93,4240,0.0,2.0,100
3,4,47,2,1,1,12,42,5,3,5,1,1,2.0,2.0,3.7,397.63,2574,0.0,2.0,100
3,4,48,2,1,2,44,38,3,2,2,2,1,1.0,1.0,2.09,399.72,6781,1.0,2.0,100
3,4,49,2,1,3,26,17,4,3,4,1,1,2.0,2.0,4.11,403.83,4676,0.0,2.0,100
3,4,50,2,2,1,32,6,2,4,2,1,1,1.0,1.0,1.88,405.71,2799,1.0,1.0,100
3,4,51,2,2,2,39,50,3,5,5,2,1,2.0,2.0,4.63,410.34,3174,0.0,2.0,100
3,4,52,2,2,3,44,51,4,5,5,2,1,2.0,2.0,4.14,414.48,3062,0.0,1.0,100
3,4,53,2,2,4,18,42,3,5,5,2,1,2.0,2.0,4.7,419.18,3447,0.0,1.0,100
3,4,54,2,1,1,17,4,5,4,4,2,1,1.0,1.0,2.13,421.31,3071,1.0,1.0,100
3,4,55,2,1,2,23,12,2,3,2,1,1,2.0,2.0,3.68,424.99,1455,0.0,2.0,100
3,4,56,2,1,3,1,51,3,4,4,2,1,1.0,1.0,1.85,426.84,4617,1.0,2.0,100
3,4,57,2,1,4,22,28,3,5,2,0,0,0.0,0.0,0.0,426.84,2109,,,100
3,4,58,2,2,1,10,25,4,5,4,1,1,1.0,1.0,1.99,428.83,1856,1.0,,100
3,4,59,2,2,2,47,17,5,2,2,2,1,2.0,2.0,3.84,432.67,3856,0.0,2.0,100
3,4,60,2,1,1,42,40,3,2,3,1,1,2.0,2.0,3.6,436.27,3295,0.0,2.0,100
3,4,61,2,1,2,48,27,2,3,2,1,1,2.0,2.0,4.23,440.5,5238,0.0,1.0,100
3,4,62,2,2,1,13,17,2,5,2,1,1,1.0,1.0,2.18,442.68,5940,1.0,1.0,100
3,4,63,2,2,2,37,32,4,5,4,1,1,1.0,1.0,1.94,444.62,2807,1.0,1.0,100
3,4,64,2,2,3,8,30,2,4,4,2,1,2.0,2.0,3.6,448.22,3712,0.0,2.0,100
3,4,65,2,2,4,15,21,4,5,4,1,1,1.0,1.0,1.97,450.19,2670,1.0,2.0,100
3,4,66,2,2,5,20,32,3,4,4,2,1,2.0,2.0,4.31,454.5,5637,0.0,2.0,100
3,4,67,2,2,6,3,29,4,2,4,1,1,1.0,1.0,1.9,456.4,2879,1.0,2.0,100
3,4,68,2,1,1,7,8,3,2,2,2,1,1.0,1.0,1.86,458.26,2221,1.0,2.0,100
3,4,69,2,1,2,34,26,3,4,4,2,1,1.0,1.0,1.99,460.25,1983,1.0,1.0,100
3,4,70,2,1,3,26,16,5,2,5,1,1,2.0,2.0,3.97,464.22,2294,0.0,2.0,100
3,4,71,2,1,4,42,2,3,5,3,1,1,2.0,2.0,4.23,468.45,2553,0.0,1.0,100
3,4,72,2,1,5,29,36,5,3,5,1,1,2.0,2.0,3.72,472.17,8031,0.0,1.0,100
3,4,73,2,1,6,31,7,2,5,2,1,1,2.0,2.0,3.93,476.1,4701,0.0,1.0,100
3,4,74,2,2,1,17,26,5,2,2,2,1,2.0,2.0,3.8,479.9,2198,0.0,2.0,100
3,4,75,2,1,1,17,42,5,4,4,2,1,1.0,1.0,1.99,481.89,8256,1.0,1.0,100
3,4,76,2,1,2,25,44,5,3,3,2,1,1.0,1.0,2.18,484.07,5743,1.0,1.0,100
3,4,77,2,1,3,23,35,5,4,5,1,1,2.0,2.0,3.71,487.78,2478,0.0,2.0,100
3,4,78,2,1,4,10,28,3,5,2,0,0,0.0,0.0,0.0,487.78,4894,,,100
3,4,79,2,1,5,6,22,5,2,5,1,1,2.0,2.0,3.37,491.15,4387,0.0,,100
3,4,80,2,2,1,50,37,5,4,5,1,1,1.0,1.0,2.06,493.21,3431,1.0,1.0,100
3,4,81,2,2,2,53,18,3,5,5,2,1,2.0,2.0,3.57,496.78,7878,0.0,2.0,100
3,4,82,2,2,3,52,1,2,3,3,2,1,2.0,2.0,4.02,500.8,12039,0.0,1.0,100
3,4,83,2,2,4,53,45,5,4,4,2,1,2.0,2.0,3.7,504.5,5784,0.0,1.0,100
3,4,84,2,2,5,10,1,5,2,2,2,1,2.0,2.0,4.25,508.75,2848,0.0,1.0,100
3,4,1,3,2,1,37,4,4,5,4,1,1,1.0,1.0,2.07,510.82,6928,1.0,,100
3,4,2,3,1,1,22,6,5,3,3,2,1,1.0,1.0,1.98,512.8,3990,1.0,2.0,100
3,4,3,3,1,2,6,25,2,3,3,2,1,1.0,1.0,1.76,514.56,8127,1.0,1.0,100
3,4,4,3,1,3,44,37,4,2,2,2,1,1.0,1.0,2.02,516.58,4104,1.0,1.0,100
3,4,5,3,1,4,37,27,4,5,5,2,1,1.0,1.0,2.19,518.77,2544,1.0,1.0,100
3,4,6,3,1,5,38,10,2,5,5,2,1,1.0,1.0,2.12,520.89,1647,1.0,1.0,100
3,4,7,3,2,1,14,41,3,5,5,2,1,2.0,2.0,3.26,524.15,13490,0.0,1.0,100
3,4,8,3,2,2,16,28,5,2,2,2,1,2.0,2.0,3.96,528.11,3172,0.0,1.0,100
3,4,9,3,2,3,31,9,4,3,3,2,1,2.0,2.0,3.68,531.79,2511,0.0,1.0,100
3,4,10,3,1,1,1,8,2,4,4,2,1,1.0,1.0,1.88,533.67,1488,1.0,1.0,100
3,4,11,3,1,2,37,31,3,5,3,1,1,2.0,2.0,3.42,537.09,18343,0.0,2.0,100
3,4,12,3,2,1,15,24,5,2,5,1,1,1.0,1.0,2.03,539.12,4584,1.0,1.0,100
3,4,13,3,2,2,29,24,4,5,4,1,1,1.0,1.0,1.95,541.07,1875,1.0,1.0,100
3,4,14,3,2,3,22,30,4,2,4,1,1,1.0,1.0,2.01,543.08,2151,1.0,1.0,100
3,4,15,3,2,4,8,53,3,2,3,1,1,1.0,1.0,1.96,545.04,5182,1.0,1.0,100
3,4,16,3,2,5,7,45,3,2,3,1,1,1.0,1.0,1.95,546.99,4255,1.0,1.0,100
3,4,17,3,2,6,6,10,5,4,5,1,1,1.0,1.0,2.04,549.03,9221,1.0,1.0,100
3,4,18,3,1,1,30,49,3,5,5,2,1,1.0,1.0,2.09,551.12,8158,1.0,2.0,100
3,4,19,3,2,1,22,33,3,4,4,2,1,2.0,2.0,5.0,556.12,6159,0.0,1.0,100
3,4,20,3,2,2,50,18,3,4,3,1,1,1.0,1.0,1.84,557.96,2761,1.0,2.0,100
3,4,21,3,2,3,37,36,3,4,3,1,1,1.0,1.0,1.88,559.84,11567,1.0,1.0,100
3,4,22,3,2,4,52,25,2,4,4,2,1,2.0,2.0,4.49,564.33,1294,0.0,2.0,100
3,4,23,3,2,5,28,44,4,5,3,0,0,0.0,0.0,0.0,564.33,2606,,,100
3,4,24,3,1,1,2,29,2,3,2,1,1,2.0,2.0,3.82,568.15,1722,0.0,,100
3,4,25,3,1,2,19,36,2,5,2,1,1,2.0,2.0,3.35,571.5,1168,0.0,1.0,100
3,4,26,3,1,3,50,9,3,2,2,2,1,1.0,1.0,2.04,573.54,1215,1.0,2.0,100
3,4,27,3,1,4,19,50,2,4,2,1,1,2.0,2.0,4.73,578.27,10428,0.0,2.0,100
3,4,28,3,1,5,16,20,3,2,3,1,1,2.0,2.0,4.33,582.6,5945,0.0,1.0,100
3,4,29,3,1,6,40,34,4,5,4,1,1,2.0,2.0,4.92,587.52,2512,0.0,1.0,100
3,4,30,3,2,1,14,7,3,2,2,2,1,2.0,2.0,4.24,591.76,5792,0.0,2.0,100
3,4,31,3,2,2,38,29,3,5,3,1,1,1.0,1.0,2.22,593.98,8837,1.0,2.0,100
3,4,32,3,2,3,22,34,4,3,4,1,1,1.0,1.0,1.96,595.94,1774,1.0,1.0,100
3,4,33,3,2,4,29,24,5,2,5,1,1,1.0,1.0,1.87,597.81,4103,1.0,1.0,100
3,4,34,3,1,1,19,6,2,3,2,1,1,2.0,2.0,3.9,601.71,3705,0.0,1.0,100
3,4,35,3,1,2,7,1,5,3,2,0,0,0.0,0.0,0.0,601.71,2533,,,100
3,4,36,3,1,3,26,24,3,2,2,2,1,1.0,1.0,2.14,603.85,1853,1.0,,100
3,4,37,3,2,1,14,12,2,4,4,2,1,2.0,2.0,3.47,607.32,12359,0.0,1.0,100
3,4,38,3,2,2,47,45,4,5,4,1,1,1.0,1.0,2.07,609.39,20000,1.0,2.0,100
3,4,39,3,1,1,49,19,4,3,4,1,1,2.0,2.0,3.72,613.11,3222,0.0,1.0,100
3,4,40,3,1,2,53,31,2,4,4,2,1,1.0,1.0,2.06,615.17,11055,1.0,2.0,100
3,4,41,3,1,3,17,35,3,5,3,1,1,2.0,2.0,3.48,618.65,3429,0.0,2.0,100
3,4,42,3,1,4,19,21,5,4,4,2,1,1.0,1.0,2.01,620.66,2230,1.0,2.0,100
3,4,43,3,2,1,2,52,5,2,3,0,0,0.0,0.0,0.0,620.66,5064,,,100
3,4,44,3,1,1,28,27,3,5,3,1,1,2.0,2.0,3.06,623.72,6496,0.0,,100
3,4,45,3,1,2,23,2,2,3,2,1,1,2.0,2.0,3.77,627.49,4071,0.0,1.0,100
3,4,46,3,1,3,26,41,2,5,5,2,1,1.0,1.0,2.05,629.54,4685,1.0,2.0,100
3,4,47,3,1,4,45,50,5,4,5,1,1,2.0,2.0,3.85,633.39,5536,0.0,2.0,100
3,4,48,3,2,1,54,25,5,4,5,1,1,1.0,1.0,2.15,635.54,8438,1.0,1.0,100
3,4,49,3,2,2,30,50,2,3,3,2,1,2.0,2.0,3.7,639.24,6359,0.0,2.0,100
3,4,50,3,2,3,5,27,5,3,5,1,1,1.0,1.0,1.73,640.97,2716,1.0,2.0,100
3,4,51,3,2,4,8,10,2,4,4,2,1,2.0,2.0,3.42,644.39,1969,0.0,2.0,100
3,4,52,3,1,1,50,19,4,3,4,1,1,2.0,2.0,4.5,648.89,2214,0.0,2.0,100
3,4,53,3,1,2,9,21,2,5,2,1,1,2.0,2.0,3.95,652.84,11071,0.0,1.0,100
3,4,54,3,1,3,13,19,5,3,2,0,0,0.0,0.0,0.0,652.84,2767,,,100
3,4,55,3,1,4,21,26,5,2,2,2,1,1.0,1.0,2.04,654.88,4632,1.0,,100
3,4,56,3,1,5,33,43,4,5,5,2,1,1.0,1.0,2.11,656.99,4535,1.0,1.0,100
3,4,57,3,1,6,37,30,4,3,4,1,1,2.0,2.0,3.0,659.99,2652,0.0,2.0,100
3,4,58,3,2,1,11,10,4,2,2,2,1,2.0,2.0,3.7,663.69,4792,0.0,2.0,100
3,4,59,3,2,2,5,15,2,5,5,2,1,2.0,2.0,3.67,667.36,2443,0.0,1.0,100
3,4,60,3,2,3,16,45,2,4,4,2,1,2.0,2.0,3.52,670.88,3047,0.0,1.0,100
3,4,61,3,2,4,1,23,2,3,3,2,1,2.0,2.0,3.91,674.79,4493,0.0,1.0,100
3,4,62,3,2,5,8,54,5,3,5,1,1,1.0,1.0,2.18,676.97,2236,1.0,2.0,100
3,4,63,3,1,1,45,47,2,5,2,1,1,2.0,2.0,3.98,680.95,5719,0.0,1.0,100
3,4,64,3,1,2,21,43,4,3,4,1,1,2.0,2.0,4.58,685.53,2321,0.0,1.0,100
3,4,65,3,1,3,46,39,3,4,3,1,1,2.0,2.0,3.67,689.2,3417,0.0,1.0,100
3,4,66,3,2,1,36,30,4,2,4,1,1,1.0,1.0,2.0,691.2,8071,1.0,1.0,100
3,4,67,3,2,2,42,22,3,4,4,2,1,2.0,2.0,3.63,694.83,5575,0.0,2.0,100
3,4,68,3,1,1,21,50,3,4,3,1,1,2.0,2.0,4.28,699.11,3966,0.0,2.0,100
3,4,69,3,1,2,15,52,5,2,5,1,1,2.0,2.0,3.88,702.99,4767,0.0,1.0,100
3,4,70,3,2,1,43,53,5,4,5,1,1,1.0,1.0,2.06,705.05,2999,1.0,1.0,100
3,4,71,3,2,2,37,6,4,2,2,2,1,2.0,2.0,4.31,709.36,6345,0.0,2.0,100
3,4,72,3,2,3,37,27,4,2,2,2,1,2.0,2.0,3.96,713.32,3719,0.0,1.0,100
3,4,73,3,2,4,43,10,5,4,4,2,1,2.0,2.0,4.42,717.74,1300,0.0,1.0,100
3,4,74,3,2,5,45,43,5,3,3,2,1,2.0,2.0,5.09,722.83,5126,0.0,1.0,100
3,4,75,3,2,6,54,22,3,5,5,2,1,2.0,2.0,4.25,727.08,1462,0.0,1.0,100
3,4,76,3,1,1,54,17,5,4,5,1,1,2.0,2.0,3.99,731.07,5149,0.0,2.0,100
3,4,77,3,2,1,47,9,2,5,2,1,1,1.0,1.0,2.11,733.18,10069,1.0,1.0,100
3,4,78,3,2,2,27,10,3,4,4,2,1,2.0,2.0,4.03,737.21,2150,0.0,2.0,100
3,4,79,3,2,3,29,50,3,2,2,2,1,2.0,2.0,3.48,740.69,3148,0.0,1.0,100
3,4,80,3,1,1,12,48,4,2,2,2,1,1.0,1.0,2.06,742.75,3445,1.0,1.0,100
3,4,81,3,1,2,34,11,5,3,3,2,1,1.0,1.0,2.0,744.75,3330,1.0,1.0,100
3,4,82,3,1,3,36,45,4,3,4,1,1,2.0,2.0,3.87,748.62,3191,0.0,2.0,100
3,4,83,3,1,4,8,15,2,3,2,1,1,2.0,2.0,4.6,753.22,3686,0.0,1.0,100
3,4,84,3,1,5,45,11,5,2,5,1,1,2.0,2.0,4.88,758.1,5934,0.0,1.0,100
4,1,1,1,2,1,42,18,5,3,5,1,1,2.0,2.0,3.8,3.8,6463,1.0,,101
4,1,2,1,2,2,6,32,2,4,2,1,1,2.0,2.0,3.22,7.02,5232,1.0,1.0,101
4,1,3,1,2,3,52,22,2,3,3,2,1,1.0,1.0,2.01,9.03,5939,0.0,2.0,101
4,1,4,1,2,4,1,42,5,4,4,2,1,1.0,1.0,2.03,11.06,6355,0.0,1.0,101
4,1,5,1,2,5,52,50,5,3,3,2,1,1.0,1.0,1.86,12.92,8474,0.0,1.0,101
4,1,6,1,1,1,20,5,4,5,5,2,1,2.0,2.0,4.56,17.48,9541,1.0,1.0,101
4,1,7,1,1,2,54,27,3,2,2,2,1,2.0,2.0,4.56,22.04,7221,1.0,1.0,101
4,1,8,1,1,3,35,28,4,5,4,1,1,1.0,1.0,2.0,24.04,8889,0.0,2.0,101
4,1,9,1,1,4,29,12,4,3,4,1,1,1.0,1.0,2.04,26.08,8907,0.0,1.0,101
4,1,10,1,1,5,22,17,2,4,2,1,1,1.0,1.0,2.02,28.1,5117,0.0,1.0,101
4,1,11,1,2,1,42,45,4,5,5,2,1,1.0,1.0,1.98,30.08,8477,0.0,2.0,101
4,1,12,1,2,2,36,21,5,4,5,1,1,2.0,2.0,4.34,34.42,4119,1.0,2.0,101
4,1,13,1,2,3,8,13,4,2,2,2,1,1.0,1.0,1.93,36.35,2440,0.0,2.0,101
4,1,14,1,2,4,19,50,4,5,5,2,1,1.0,1.0,2.26,38.61,14876,0.0,1.0,101
4,1,15,1,2,5,1,45,4,5,4,1,1,2.0,2.0,3.94,42.55,4070,1.0,2.0,101
4,1,16,1,2,6,19,45,5,2,2,2,1,1.0,1.0,2.01,44.56,5281,0.0,2.0,101
4,1,17,1,1,1,43,24,2,3,3,2,1,2.0,2.0,4.5,49.06,8963,1.0,1.0,101
4,1,18,1,1,2,42,51,4,2,2,2,1,2.0,2.0,4.03,53.09,7242,1.0,1.0,101
4,1,19,1,1,3,12,47,3,2,2,2,1,2.0,2.0,3.95,57.04,6990,1.0,1.0,101
4,1,20,1,1,4,31,14,2,3,2,1,1,1.0,1.0,1.9,58.94,4388,0.0,2.0,101
4,1,21,1,2,1,10,38,2,5,5,2,1,1.0,1.0,2.03,60.97,7874,0.0,2.0,101
4,1,22,1,2,2,7,52,2,5,2,1,1,2.0,2.0,3.37,64.34,3676,1.0,2.0,101
4,1,23,1,1,1,15,52,4,5,5,2,1,2.0,2.0,4.34,68.68,3751,1.0,2.0,101
4,1,24,1,1,2,41,1,5,2,2,2,1,2.0,2.0,4.77,73.45,3718,1.0,1.0,101
4,1,25,1,2,1,52,14,5,3,5,1,1,2.0,2.0,3.67,77.12,10135,1.0,2.0,101
4,1,26,1,2,2,23,46,5,3,3,2,1,1.0,1.0,2.1,79.22,10135,0.0,2.0,101
4,1,27,1,2,3,30,21,2,4,2,1,1,2.0,2.0,4.59,83.81,9015,1.0,2.0,101
4,1,28,1,2,4,43,15,4,3,2,0,0,0.0,0.0,0.0,83.81,5052,,,101
4,1,29,1,1,1,23,3,3,4,3,1,1,1.0,1.0,1.81,85.62,12514,0.0,,101
4,1,30,1,1,2,27,38,4,2,2,2,1,2.0,2.0,3.32,88.94,8635,1.0,2.0,101
4,1,31,1,1,3,35,18,4,5,4,1,1,1.0,1.0,2.07,91.01,4959,0.0,2.0,101
4,1,32,1,1,4,52,43,5,4,4,2,1,2.0,2.0,3.81,94.82,23350,1.0,2.0,101
4,1,33,1,1,5,17,7,4,2,2,2,1,2.0,2.0,4.33,99.15,11829,1.0,1.0,101
4,1,34,1,1,6,34,42,3,5,5,2,1,2.0,2.0,4.38,103.53,15753,1.0,1.0,101
4,1,35,1,2,1,7,2,5,2,5,1,1,2.0,2.0,4.34,107.87,16625,1.0,2.0,101
4,1,36,1,2,2,38,26,2,4,2,1,1,2.0,2.0,4.61,112.48,10325,1.0,1.0,101
4,1,37,1,2,3,19,30,2,5,5,2,1,1.0,1.0,2.08,114.56,9742,0.0,2.0,101
4,1,38,1,1,1,3,13,2,5,5,2,1,2.0,2.0,4.56,119.12,3230,1.0,1.0,101
4,1,39,1,1,2,42,29,3,4,3,1,1,1.0,1.0,1.86,120.98,3722,0.0,2.0,101
4,1,40,1,1,3,47,13,2,3,2,1,1,1.0,1.0,2.0,122.98,4099,0.0,1.0,101
4,1,41,1,2,1,7,52,5,2,5,1,1,2.0,2.0,3.93,126.91,1740,1.0,1.0,101
4,1,42,1,1,1,12,8,5,4,4,2,1,2.0,2.0,3.24,130.15,2364,1.0,2.0,101
4,1,43,1,2,1,16,22,2,4,2,1,1,2.0,2.0,4.12,134.27,3955,1.0,2.0,101
4,1,44,1,2,2,35,36,2,5,2,1,1,2.0,2.0,3.5,137.77,2586,1.0,1.0,101
4,1,45,1,2,3,25,50,3,5,3,1,1,2.0,2.0,4.67,142.44,3904,1.0,1.0,101
4,1,46,1,1,1,43,32,3,2,2,2,1,2.0,2.0,3.62,146.06,8585,1.0,2.0,101
4,1,47,1,1,2,28,26,5,4,4,2,1,2.0,2.0,4.25,150.31,7727,1.0,1.0,101
4,1,48,1,1,3,50,9,5,2,2,2,1,2.0,2.0,4.1,154.41,2560,1.0,1.0,101
4,1,49,1,1,4,21,2,2,3,2,1,1,1.0,1.0,1.89,156.3,5383,0.0,2.0,101
4,1,50,1,1,5,16,6,4,3,4,1,1,1.0,1.0,1.74,158.04,9605,0.0,1.0,101
4,1,51,1,2,1,51,2,4,2,4,1,1,2.0,2.0,3.97,162.01,8698,1.0,1.0,101
4,1,52,1,2,2,10,26,4,3,3,2,1,1.0,1.0,1.88,163.89,6276,0.0,2.0,101
4,1,53,1,2,3,2,24,3,4,3,1,1,2.0,2.0,4.29,168.18,10094,1.0,2.0,101
4,1,54,1,2,4,28,2,2,4,4,2,1,1.0,1.0,2.06,170.24,2160,0.0,2.0,101
4,1,55,1,2,5,38,31,3,4,4,2,1,1.0,1.0,2.2,172.44,5504,0.0,1.0,101
4,1,56,1,1,1,37,43,4,3,3,2,1,2.0,2.0,4.28,176.72,15849,1.0,1.0,101
4,1,57,1,2,1,2,48,5,2,2,2,1,1.0,1.0,1.92,178.64,2077,0.0,1.0,101
4,1,58,1,2,2,44,46,3,5,5,2,1,1.0,1.0,2.04,180.68,9567,0.0,1.0,101
4,1,59,1,2,3,23,18,2,3,2,1,1,2.0,2.0,3.52,184.2,10286,1.0,2.0,101
4,1,60,1,2,4,44,15,3,2,2,2,1,1.0,1.0,2.0,186.2,4824,0.0,2.0,101
4,1,61,1,1,1,32,20,3,5,5,2,1,2.0,2.0,3.98,190.18,3212,1.0,1.0,101
4,1,62,1,1,2,24,9,5,3,2,0,0,0.0,0.0,0.0,190.18,1521,,,101
4,1,63,1,1,3,11,30,5,4,4,2,1,2.0,2.0,4.0,194.18,14686,1.0,,101
4,1,64,1,1,4,38,13,3,4,3,1,1,1.0,1.0,1.96,196.14,6969,0.0,2.0,101
4,1,65,1,1,5,5,36,5,2,2,2,1,2.0,2.0,4.52,200.66,7263,1.0,2.0,101
4,1,66,1,1,6,39,8,3,2,2,2,1,2.0,2.0,3.12,203.78,1834,1.0,1.0,101
4,1,67,1,2,1,38,18,4,3,3,2,1,1.0,1.0,2.05,205.83,9686,0.0,1.0,101
4,1,68,1,2,2,53,44,4,3,4,1,1,2.0,2.0,4.42,210.25,10472,1.0,2.0,101
4,1,69,1,1,1,18,8,3,4,3,1,1,1.0,1.0,2.09,212.34,5290,0.0,1.0,101
4,1,70,1,1,2,29,7,2,5,2,1,1,1.0,1.0,2.07,214.41,6188,0.0,1.0,101
4,1,71,1,1,3,12,50,5,4,4,2,1,2.0,2.0,4.02,218.43,9114,1.0,2.0,101
4,1,72,1,2,1,3,34,3,5,5,2,1,1.0,1.0,2.08,220.51,6162,0.0,1.0,101
4,1,73,1,2,2,12,35,2,5,2,1,1,2.0,2.0,4.27,224.78,4570,1.0,2.0,101
4,1,74,1,2,3,16,48,5,3,3,2,1,1.0,1.0,1.97,226.75,5344,0.0,2.0,101
4,1,75,1,2,4,29,38,5,3,3,2,1,1.0,1.0,1.96,228.71,7193,0.0,1.0,101
4,1,76,1,2,5,31,24,4,2,4,1,1,2.0,2.0,3.86,232.57,3631,1.0,2.0,101
4,1,77,1,2,6,13,54,3,4,4,2,1,1.0,1.0,1.83,234.4,18594,0.0,2.0,101
4,1,78,1,1,1,39,21,3,5,5,2,1,2.0,2.0,3.89,238.29,1984,1.0,1.0,101
4,1,79,1,1,2,30,51,3,2,3,1,1,1.0,1.0,2.01,240.3,6686,0.0,2.0,101
4,1,80,1,2,1,42,52,3,5,5,2,1,1.0,1.0,2.04,242.34,2807,0.0,2.0,101
4,1,81,1,1,1,34,4,2,3,2,1,1,1.0,1.0,2.17,244.51,8773,0.0,2.0,101
4,1,82,1,1,2,53,51,2,4,4,2,1,2.0,2.0,3.83,248.34,9731,1.0,2.0,101
4,1,83,1,1,3,30,12,4,2,4,1,1,1.0,1.0,2.07,250.41,6844,0.0,2.0,101
4,1,84,1,1,4,10,54,3,2,2,2,1,2.0,2.0,4.38,254.79,13863,1.0,2.0,101
4,1,1,2,1,1,13,2,5,4,5,1,1,1.0,1.0,2.11,256.9,18070,0.0,,101
4,1,2,2,1,2,51,7,5,2,2,2,1,2.0,2.0,3.53,260.43,2257,1.0,2.0,101
4,1,3,2,1,3,23,24,5,3,3,2,1,2.0,2.0,4.1,264.53,2324,1.0,1.0,101
4,1,4,2,2,1,13,15,2,3,3,2,1,1.0,1.0,2.03,266.56,3589,0.0,1.0,101
4,1,5,2,2,2,30,21,3,4,4,2,1,1.0,1.0,1.88,268.44,2715,0.0,1.0,101
4,1,6,2,2,3,15,43,4,2,2,2,1,1.0,1.0,1.91,270.35,1572,0.0,1.0,101
4,1,7,2,1,1,34,6,5,3,5,1,1,1.0,1.0,2.13,272.48,5474,0.0,2.0,101
4,1,8,2,2,1,32,22,5,2,2,2,1,1.0,1.0,1.98,274.46,2405,0.0,2.0,101
4,1,9,2,2,2,22,33,5,3,3,2,1,1.0,1.0,2.05,276.51,8426,0.0,1.0,101
4,1,10,2,2,3,35,9,5,3,3,2,1,1.0,1.0,2.01,278.52,4719,0.0,1.0,101
4,1,11,2,2,4,23,33,5,2,2,2,1,1.0,1.0,1.93,280.45,5567,0.0,1.0,101
4,1,12,2,2,5,20,22,3,2,2,2,1,1.0,1.0,1.93,282.38,3742,0.0,1.0,101
4,1,13,2,1,1,54,23,5,4,4,2,1,2.0,2.0,4.21,286.59,2407,1.0,1.0,101
4,1,14,2,1,2,29,15,3,2,3,1,1,1.0,1.0,1.89,288.48,10211,0.0,2.0,101
4,1,15,2,1,3,13,34,4,5,5,2,1,2.0,2.0,4.37,292.85,4393,1.0,2.0,101
4,1,16,2,1,4,28,25,5,3,3,2,1,2.0,2.0,4.27,297.12,14094,1.0,1.0,101
4,1,17,2,2,1,40,2,5,4,4,2,1,1.0,1.0,1.9,299.02,4593,0.0,1.0,101
4,1,18,2,2,2,49,51,4,3,4,1,1,2.0,2.0,3.87,302.89,10151,1.0,2.0,101
4,1,19,2,2,3,35,37,4,5,5,2,1,1.0,1.0,1.86,304.75,2694,0.0,2.0,101
4,1,20,2,2,4,32,50,4,3,3,2,1,1.0,1.0,1.74,306.49,10120,0.0,1.0,101
4,1,21,2,2,5,5,33,5,3,5,1,1,2.0,2.0,4.46,310.95,10512,1.0,2.0,101
4,1,22,2,2,6,33,39,2,3,2,1,1,2.0,2.0,3.76,314.71,3578,1.0,1.0,101
4,1,23,2,1,1,23,33,4,5,5,2,1,2.0,2.0,4.15,318.86,3489,1.0,2.0,101
4,1,24,2,1,2,3,28,3,4,4,2,1,2.0,2.0,4.11,322.97,1450,1.0,1.0,101
4,1,25,2,1,3,44,31,2,4,4,2,1,2.0,2.0,4.01,326.98,2334,1.0,1.0,101
4,1,26,2,1,4,32,28,5,2,2,2,1,2.0,2.0,3.53,330.51,1662,1.0,1.0,101
4,1,27,2,1,5,49,26,2,3,3,2,1,2.0,2.0,3.55,334.06,2377,1.0,1.0,101
4,1,28,2,2,1,11,12,2,5,5,2,1,1.0,1.0,1.96,336.02,2368,0.0,1.0,101
4,1,29,2,1,1,9,39,2,4,2,1,1,1.0,1.0,1.86,337.88,2614,0.0,2.0,101
4,1,30,2,1,2,49,38,3,4,4,2,1,2.0,2.0,3.5,341.38,7787,1.0,2.0,101
4,1,31,2,1,3,25,6,3,5,3,1,1,1.0,1.0,2.17,343.55,6066,0.0,2.0,101
4,1,32,2,1,4,40,6,3,5,5,2,1,2.0,2.0,4.03,347.58,1396,1.0,2.0,101
4,1,33,2,1,5,54,4,4,2,2,2,1,2.0,2.0,3.43,351.01,4849,1.0,1.0,101
4,1,34,2,1,6,46,36,5,4,5,1,1,1.0,1.0,2.0,353.01,7556,0.0,2.0,101
4,1,35,2,2,1,37,19,4,3,4,1,1,2.0,2.0,3.47,356.48,11084,1.0,1.0,101
4,1,36,2,2,2,42,3,3,5,3,1,1,2.0,2.0,3.36,359.84,3486,1.0,1.0,101
4,1,37,2,1,1,36,29,3,2,2,2,1,2.0,2.0,3.88,363.72,6312,1.0,2.0,101
4,1,38,2,1,2,50,15,3,2,3,1,1,1.0,1.0,2.11,365.83,1969,0.0,2.0,101
4,1,39,2,2,1,49,35,2,4,4,2,1,1.0,1.0,2.02,367.85,1839,0.0,2.0,101
4,1,40,2,2,2,50,7,2,3,3,2,1,1.0,1.0,2.08,369.93,4197,0.0,1.0,101
4,1,41,2,2,3,26,53,4,3,3,2,1,1.0,1.0,1.86,371.79,2921,0.0,1.0,101
4,1,42,2,2,4,3,24,2,3,3,2,1,1.0,1.0,1.95,373.74,2114,0.0,1.0,101
4,1,43,2,1,1,34,32,5,2,2,2,1,2.0,2.0,3.88,377.62,5859,1.0,1.0,101
4,1,44,2,2,1,24,10,3,4,4,2,1,1.0,1.0,1.86,379.48,5614,0.0,1.0,101
4,1,45,2,2,2,46,22,3,5,5,2,1,1.0,1.0,1.84,381.32,2762,0.0,1.0,101
4,1,46,2,2,3,13,35,4,2,2,2,1,1.0,1.0,2.11,383.43,1642,0.0,1.0,101
4,1,47,2,2,4,54,18,5,2,2,2,1,1.0,1.0,2.0,385.43,3966,0.0,1.0,101
4,1,48,2,1,1,31,39,5,4,4,2,1,2.0,2.0,3.7,389.13,2037,1.0,1.0,101
4,1,49,2,1,2,34,52,3,2,2,2,1,2.0,2.0,4.38,393.51,3616,1.0,1.0,101
4,1,50,2,1,3,5,16,3,4,4,2,1,2.0,2.0,4.11,397.62,3765,1.0,1.0,101
4,1,51,2,1,4,36,22,4,3,4,1,1,1.0,1.0,1.88,399.5,6731,0.0,2.0,101
4,1,52,2,2,1,51,10,3,2,2,2,1,1.0,1.0,2.16,401.66,4132,0.0,2.0,101
4,1,53,2,2,2,18,20,3,5,5,2,1,1.0,1.0,2.03,403.69,4579,0.0,1.0,101
4,1,54,2,2,3,46,44,4,2,2,2,1,1.0,1.0,2.17,405.86,1585,0.0,1.0,101
4,1,55,2,1,1,3,20,2,5,2,1,1,1.0,1.0,2.13,407.99,6255,0.0,2.0,101
4,1,56,2,1,2,1,51,4,2,2,2,1,2.0,2.0,3.68,411.67,3267,1.0,2.0,101
4,1,57,2,2,1,28,42,5,4,4,2,1,1.0,1.0,1.85,413.52,5022,0.0,1.0,101
4,1,58,2,1,1,39,48,4,5,5,2,1,2.0,2.0,3.97,417.49,4242,1.0,1.0,101
4,1,59,2,1,2,33,17,4,2,4,1,1,1.0,1.0,1.96,419.45,5334,0.0,2.0,101
4,1,60,2,1,3,45,43,2,5,5,2,1,2.0,2.0,3.6,423.05,4358,1.0,2.0,101
4,1,61,2,1,4,12,32,2,3,2,1,1,1.0,1.0,2.06,425.11,12341,0.0,2.0,101
4,1,62,2,1,5,18,43,2,4,2,1,1,1.0,1.0,2.18,427.29,1821,0.0,1.0,101
4,1,63,2,1,6,25,47,3,4,3,1,1,1.0,1.0,1.94,429.23,1834,0.0,1.0,101
4,1,64,2,2,1,16,41,4,2,4,1,1,2.0,2.0,3.6,432.83,1078,1.0,1.0,101
4,1,65,2,2,2,17,33,2,4,2,1,1,2.0,2.0,3.88,436.71,1457,1.0,1.0,101
4,1,66,2,2,3,35,4,5,4,4,2,1,1.0,1.0,2.08,438.79,9875,0.0,2.0,101
4,1,67,2,2,4,12,31,2,4,4,2,1,1.0,1.0,1.9,440.69,4126,0.0,1.0,101
4,1,68,2,2,5,12,26,2,4,4,2,1,1.0,1.0,1.86,442.55,7895,0.0,1.0,101
4,1,69,2,1,1,48,1,2,5,5,2,1,2.0,2.0,3.94,446.49,4257,1.0,1.0,101
4,1,70,2,1,2,16,38,5,2,2,2,1,2.0,2.0,3.97,450.46,2396,1.0,1.0,101
4,1,71,2,1,3,27,19,3,2,2,2,1,2.0,2.0,4.23,454.69,3777,1.0,1.0,101
4,1,72,2,1,4,49,2,3,4,3,1,1,1.0,1.0,1.93,456.62,2656,0.0,2.0,101
4,1,73,2,1,5,51,2,4,3,4,1,1,1.0,1.0,1.98,458.6,5683,0.0,1.0,101
4,1,74,2,2,1,54,1,4,5,5,2,1,1.0,1.0,1.95,460.55,5525,0.0,2.0,101
4,1,75,2,2,2,42,28,4,5,5,2,1,1.0,1.0,1.99,462.54,1741,0.0,1.0,101
4,1,76,2,1,1,54,14,3,5,5,2,1,2.0,2.0,4.72,467.26,11909,1.0,1.0,101
4,1,77,2,1,2,42,8,4,3,3,2,1,2.0,2.0,3.71,470.97,2663,1.0,1.0,101
4,1,78,2,1,3,6,30,2,5,2,1,1,1.0,1.0,1.84,472.81,8841,0.0,2.0,101
4,1,79,2,2,1,24,20,2,5,5,2,1,1.0,1.0,2.06,474.87,2253,0.0,2.0,101
4,1,80,2,2,2,4,40,3,5,5,2,1,1.0,1.0,1.89,476.76,1601,0.0,1.0,101
4,1,81,2,2,3,33,35,5,3,3,2,1,1.0,1.0,2.0,478.76,14606,0.0,1.0,101
4,1,82,2,2,4,47,7,2,5,5,2,1,1.0,1.0,1.93,480.69,2539,0.0,1.0,101
4,1,83,2,2,5,10,26,4,5,4,1,1,2.0,2.0,4.25,484.94,2331,1.0,2.0,101
4,1,84,2,2,6,39,7,2,3,2,1,1,2.0,2.0,4.26,489.2,10795,1.0,1.0,101
4,1,1,3,1,1,27,38,2,3,3,2,1,2.0,2.0,3.9,493.1,4193,1.0,,101
4,1,2,3,1,2,37,27,4,3,3,2,1,2.0,2.0,3.03,496.13,1959,1.0,1.0,101
4,1,3,3,1,3,35,5,2,4,4,2,1,2.0,2.0,4.06,500.19,4326,1.0,1.0,101
4,1,4,3,1,4,52,18,5,2,2,2,1,2.0,2.0,4.75,504.94,6248,1.0,1.0,101
4,1,5,3,2,1,54,45,2,3,2,1,1,2.0,2.0,4.48,509.42,14402,1.0,2.0,101
4,1,6,3,1,1,40,49,2,3,2,1,1,1.0,1.0,1.81,511.23,4192,0.0,1.0,101
4,1,7,3,2,1,51,39,5,2,5,1,1,2.0,2.0,3.96,515.19,3734,1.0,1.0,101
4,1,8,3,2,2,52,15,4,5,4,1,1,2.0,2.0,3.68,518.87,3462,1.0,1.0,101
4,1,9,3,2,3,54,47,4,3,4,1,1,2.0,2.0,3.52,522.39,4201,1.0,1.0,101
4,1,10,3,2,4,14,12,3,2,3,1,1,2.0,2.0,3.42,525.81,4751,1.0,1.0,101
4,1,11,3,1,1,33,16,4,3,4,1,1,1.0,1.0,2.03,527.84,4390,0.0,1.0,101
4,1,12,3,1,2,17,36,3,4,3,1,1,1.0,1.0,1.95,529.79,7708,0.0,1.0,101
4,1,13,3,1,3,14,19,2,5,2,1,1,1.0,1.0,2.01,531.8,10509,0.0,1.0,101
4,1,14,3,1,4,36,42,4,3,4,1,1,1.0,1.0,1.96,533.76,4415,0.0,1.0,101
4,1,15,3,1,5,36,23,3,5,3,1,1,1.0,1.0,1.95,535.71,2731,0.0,1.0,101
4,1,16,3,1,6,44,36,3,4,4,2,1,2.0,2.0,4.17,539.88,2555,1.0,2.0,101
4,1,17,3,2,1,5,26,5,2,2,2,1,1.0,1.0,2.09,541.97,1738,0.0,1.0,101
4,1,18,3,2,2,27,16,2,5,2,1,1,2.0,2.0,5.0,546.97,4778,1.0,2.0,101
4,1,19,3,1,1,27,40,4,2,4,1,1,1.0,1.0,1.84,548.81,5065,0.0,1.0,101
4,1,20,3,1,2,4,38,2,3,2,1,1,1.0,1.0,1.88,550.69,4787,0.0,1.0,101
4,1,21,3,1,3,11,20,5,4,5,1,1,1.0,1.0,2.12,552.81,1457,0.0,1.0,101
4,1,22,3,1,4,1,19,3,5,5,2,1,2.0,2.0,3.82,556.63,6909,1.0,2.0,101
4,1,23,3,1,5,16,41,2,4,4,2,1,2.0,2.0,3.35,559.98,3358,1.0,1.0,101
4,1,24,3,2,1,24,27,2,4,4,2,1,1.0,1.0,2.04,562.02,3805,0.0,1.0,101
4,1,25,3,2,2,26,20,3,2,2,2,1,1.0,1.0,2.18,564.2,3715,0.0,1.0,101
4,1,26,3,2,3,12,29,3,2,3,1,1,2.0,2.0,4.33,568.53,10339,1.0,2.0,101
4,1,27,3,2,4,47,34,3,2,2,2,1,1.0,1.0,2.23,570.76,8084,0.0,2.0,101
4,1,28,3,2,5,34,21,3,4,3,1,1,2.0,2.0,4.24,575.0,3894,1.0,2.0,101
4,1,29,3,2,6,20,37,5,2,2,2,1,1.0,1.0,2.22,577.22,2615,0.0,2.0,101
4,1,30,3,1,1,11,35,3,5,3,1,1,1.0,1.0,1.96,579.18,4636,0.0,2.0,101
4,1,31,3,1,2,31,47,4,3,3,2,1,2.0,2.0,3.46,582.64,7672,1.0,2.0,101
4,1,32,3,2,1,45,46,5,3,3,2,1,1.0,1.0,1.98,584.62,2899,0.0,1.0,101
4,1,33,3,2,2,6,12,2,3,2,1,1,2.0,2.0,4.56,589.18,4700,1.0,2.0,101
4,1,34,3,2,3,8,44,2,5,5,2,1,1.0,1.0,1.87,591.05,2117,0.0,2.0,101
4,1,35,3,2,4,22,38,3,2,3,1,1,2.0,2.0,4.3,595.35,10926,1.0,2.0,101
4,1,36,3,2,5,53,29,4,5,4,1,1,2.0,2.0,3.72,599.07,3614,1.0,1.0,101
4,1,37,3,1,1,30,14,2,4,4,2,1,2.0,2.0,4.26,603.33,5323,1.0,2.0,101
4,1,38,3,1,2,3,33,2,5,5,2,1,2.0,2.0,3.48,606.81,2740,1.0,1.0,101
4,1,39,3,1,3,4,39,5,4,4,2,1,2.0,2.0,4.04,610.85,2891,1.0,1.0,101
4,1,40,3,2,1,11,15,4,2,2,2,1,1.0,1.0,1.76,612.61,4389,0.0,1.0,101
4,1,41,3,2,2,28,12,5,4,5,1,1,2.0,2.0,3.77,616.38,1875,1.0,2.0,101
4,1,42,3,2,3,49,20,3,2,2,2,1,1.0,1.0,2.05,618.43,5565,0.0,2.0,101
4,1,43,3,1,1,54,8,4,3,3,2,1,2.0,2.0,3.85,622.28,1764,1.0,1.0,101
4,1,44,3,1,2,25,40,3,2,2,2,1,2.0,2.0,4.58,626.86,1771,1.0,1.0,101
4,1,45,3,1,3,9,33,2,4,4,2,1,2.0,2.0,3.7,630.56,3761,1.0,1.0,101
4,1,46,3,1,4,6,22,4,5,5,2,1,2.0,2.0,2.9,633.46,1568,1.0,1.0,101
4,1,47,3,1,5,50,35,5,3,3,2,1,2.0,2.0,3.42,636.88,4448,1.0,1.0,101
4,1,48,3,1,6,1,12,4,5,5,2,1,2.0,2.0,4.5,641.38,4026,1.0,1.0,101
4,1,49,3,2,1,5,52,4,5,5,2,1,1.0,1.0,1.99,643.37,2783,0.0,1.0,101
4,1,50,3,2,2,54,19,3,4,4,2,1,1.0,1.0,2.04,645.41,2253,0.0,1.0,101
4,1,51,3,2,3,37,45,4,2,2,2,1,1.0,1.0,2.11,647.52,4281,0.0,1.0,101
4,1,52,3,1,1,2,29,5,2,2,2,1,2.0,2.0,3.0,650.52,3898,1.0,1.0,101
4,1,53,3,2,1,33,54,5,4,4,2,1,1.0,1.0,1.92,652.44,4148,0.0,1.0,101
4,1,54,3,1,1,1,37,3,5,5,2,1,2.0,2.0,3.67,656.11,4075,1.0,1.0,101
4,1,55,3,1,2,19,22,5,3,3,2,1,2.0,2.0,3.52,659.63,5942,1.0,1.0,101
4,1,56,3,2,1,8,44,5,3,3,2,1,1.0,1.0,1.98,661.61,7557,0.0,1.0,101
4,1,57,3,2,2,6,33,5,3,3,2,1,1.0,1.0,2.18,663.79,5108,0.0,1.0,101
4,1,58,3,2,3,34,2,3,5,5,2,1,1.0,1.0,2.0,665.79,2454,0.0,1.0,101
4,1,59,3,2,4,3,21,4,3,3,2,1,1.0,1.0,2.14,667.93,1498,0.0,1.0,101
4,1,60,3,1,1,44,26,3,5,5,2,1,2.0,2.0,3.67,671.6,1410,1.0,1.0,101
4,1,61,3,1,2,51,9,3,5,5,2,1,2.0,2.0,4.0,675.6,2383,1.0,1.0,101
4,1,62,3,1,3,33,8,2,3,3,2,1,2.0,2.0,3.63,679.23,3829,1.0,1.0,101
4,1,63,3,1,4,52,31,2,4,4,2,1,2.0,2.0,4.28,683.51,4673,1.0,1.0,101
4,1,64,3,1,5,13,54,2,5,5,2,1,2.0,2.0,3.88,687.39,2308,1.0,1.0,101
4,1,65,3,2,1,46,30,2,4,4,2,1,1.0,1.0,2.06,689.45,5037,0.0,1.0,101
4,1,66,3,2,2,28,34,4,5,4,1,1,2.0,2.0,4.31,693.76,1793,1.0,2.0,101
4,1,67,3,2,3,32,37,5,4,4,2,1,1.0,1.0,1.99,695.75,5711,0.0,2.0,101
4,1,68,3,2,4,37,49,4,2,2,2,1,1.0,1.0,2.1,697.85,7113,0.0,1.0,101
4,1,69,3,2,5,6,25,5,2,2,2,1,1.0,1.0,2.27,700.12,2736,0.0,1.0,101
4,1,70,3,1,1,7,24,5,2,5,1,1,1.0,1.0,2.06,702.18,5729,0.0,2.0,101
4,1,71,3,1,2,5,33,5,4,4,2,1,2.0,2.0,3.99,706.17,5337,1.0,2.0,101
4,1,72,3,1,3,34,40,4,5,4,1,1,1.0,1.0,2.11,708.28,4344,0.0,2.0,101
4,1,73,3,2,1,20,19,5,4,4,2,1,1.0,1.0,2.01,710.29,1728,0.0,2.0,101
4,1,74,3,2,2,33,10,4,2,4,1,1,2.0,2.0,3.48,713.77,2913,1.0,2.0,101
4,1,75,3,2,3,19,23,5,3,3,2,1,1.0,1.0,2.06,715.83,1737,0.0,2.0,101
4,1,76,3,2,4,16,7,2,5,5,2,1,1.0,1.0,2.0,717.83,6169,0.0,1.0,101
4,1,77,3,2,5,11,2,3,4,4,2,1,1.0,1.0,1.97,719.8,4816,0.0,1.0,101
4,1,78,3,2,6,7,49,3,4,3,1,1,2.0,2.0,4.6,724.4,8828,1.0,2.0,101
4,1,79,3,1,1,10,7,2,5,5,2,1,2.0,2.0,4.88,729.28,1241,1.0,2.0,101
4,1,80,3,1,2,23,26,4,2,2,2,1,2.0,2.0,3.75,733.03,6021,1.0,1.0,101
4,1,81,3,1,3,19,51,4,2,2,2,1,2.0,2.0,4.05,737.08,3626,1.0,1.0,101
4,1,82,3,1,4,41,40,3,4,3,1,1,1.0,1.0,1.9,738.98,10062,0.0,2.0,101
4,1,83,3,2,1,47,51,5,3,5,1,1,2.0,2.0,4.32,743.3,4520,1.0,1.0,101
4,1,84,3,2,2,23,44,2,3,2,1,1,2.0,2.0,2.89,746.19,1249,1.0,1.0,101
5,2,1,1,2,1,27,30,4,2,4,1,1,2.0,1.0,3.95,3.95,4120,1.0,,102
5,2,2,1,1,1,51,32,3,4,2,0,0,0.0,0.0,0.0,3.95,1251,,,102
5,2,3,1,1,2,54,33,2,4,2,1,1,1.0,2.0,1.22,5.17,2815,0.0,,102
5,2,4,1,2,1,10,4,5,2,2,2,1,1.0,2.0,2.06,7.23,1504,0.0,2.0,102
5,2,5,1,2,2,26,38,5,3,5,1,1,2.0,1.0,4.03,11.26,4362,1.0,2.0,102
5,2,6,1,2,3,35,44,4,5,5,2,1,1.0,2.0,1.46,12.72,2276,0.0,2.0,102
5,2,7,1,2,4,46,6,2,3,2,1,1,2.0,1.0,4.14,16.86,4473,1.0,2.0,102
5,2,8,1,1,1,3,31,3,5,5,2,1,2.0,1.0,4.14,21.0,4550,1.0,2.0,102
5,2,9,1,1,2,40,43,4,2,4,1,1,1.0,2.0,1.98,22.98,5551,0.0,2.0,102
5,2,10,1,1,3,37,25,2,4,2,1,1,1.0,2.0,2.15,25.13,4775,0.0,1.0,102
5,2,11,1,1,4,29,28,5,3,5,1,1,1.0,2.0,2.08,27.21,2351,0.0,1.0,102
5,2,12,1,1,5,19,50,2,5,2,1,1,1.0,2.0,1.91,29.12,3974,0.0,1.0,102
5,2,13,1,1,6,21,53,5,3,5,1,1,1.0,2.0,2.34,31.46,1630,0.0,1.0,102
5,2,14,1,2,1,36,49,4,2,4,1,1,2.0,1.0,3.93,35.39,4352,1.0,1.0,102
5,2,15,1,2,2,6,21,4,2,4,1,1,2.0,1.0,4.26,39.65,1870,1.0,1.0,102
5,2,16,1,2,3,4,24,5,3,5,1,1,2.0,1.0,3.98,43.63,1855,1.0,1.0,102
5,2,17,1,1,1,19,51,3,4,3,1,1,1.0,2.0,2.05,45.68,10488,0.0,1.0,102
5,2,18,1,1,2,46,20,2,5,2,1,1,1.0,2.0,2.5,48.18,2220,0.0,1.0,102
5,2,19,1,1,3,46,9,3,2,3,1,1,1.0,2.0,2.03,50.21,5276,0.0,1.0,102
5,2,20,1,1,4,13,7,4,5,4,1,1,1.0,2.0,1.95,52.16,9240,0.0,1.0,102
5,2,21,1,1,5,49,12,4,2,4,1,1,1.0,2.0,1.61,53.77,3211,0.0,1.0,102
5,2,22,1,2,1,15,3,3,2,2,2,1,1.0,2.0,2.14,55.91,2605,0.0,2.0,102
5,2,23,1,2,2,45,37,3,2,2,2,1,1.0,2.0,1.37,57.28,1701,0.0,1.0,102
5,2,24,1,1,1,38,3,5,2,2,2,1,2.0,1.0,4.08,61.36,1097,1.0,1.0,102
5,2,25,1,2,1,3,12,2,5,5,2,1,1.0,2.0,2.77,64.13,3911,0.0,1.0,102
5,2,26,1,2,2,20,8,4,3,4,1,1,2.0,1.0,3.92,68.05,6567,1.0,2.0,102
5,2,27,1,2,3,26,4,3,4,4,2,1,1.0,2.0,2.4,70.45,7310,0.0,2.0,102
5,2,28,1,2,4,41,8,3,2,2,2,1,1.0,2.0,2.59,73.04,2857,0.0,1.0,102
5,2,29,1,2,5,5,38,4,3,3,2,1,1.0,2.0,1.25,74.29,4608,0.0,1.0,102
5,2,30,1,2,6,16,42,2,3,2,1,1,2.0,1.0,3.83,78.12,2352,1.0,2.0,102
5,2,31,1,1,1,10,8,2,3,2,1,1,1.0,2.0,2.27,80.39,8687,0.0,1.0,102
5,2,32,1,1,2,43,21,5,2,5,1,1,1.0,2.0,1.81,82.2,3415,0.0,1.0,102
5,2,33,1,1,3,28,54,5,4,5,1,1,1.0,2.0,2.33,84.53,3054,0.0,1.0,102
5,2,34,1,2,1,12,11,2,3,3,2,1,1.0,2.0,2.38,86.91,3865,0.0,2.0,102
5,2,35,1,2,2,16,21,5,2,2,2,1,1.0,2.0,2.34,89.25,2134,0.0,1.0,102
5,2,36,1,2,3,47,20,5,4,4,2,1,1.0,2.0,2.61,91.86,1965,0.0,1.0,102
5,2,37,1,2,4,28,52,5,4,5,1,1,2.0,1.0,4.08,95.94,3295,1.0,2.0,102
5,2,38,1,2,5,47,15,2,4,4,2,1,1.0,2.0,2.56,98.5,5479,0.0,2.0,102
5,2,39,1,1,1,40,20,5,4,4,2,1,2.0,1.0,3.86,102.36,10960,1.0,1.0,102
5,2,40,1,1,2,4,20,4,3,4,1,1,1.0,2.0,1.99,104.35,2022,0.0,2.0,102
5,2,41,1,1,3,23,43,5,4,4,2,1,2.0,1.0,3.98,108.33,2600,1.0,2.0,102
5,2,42,1,1,4,24,32,3,5,3,1,1,1.0,2.0,1.24,109.57,3822,0.0,2.0,102
5,2,43,1,2,1,8,5,3,4,3,1,1,2.0,1.0,4.03,113.6,7893,1.0,1.0,102
5,2,44,1,1,1,19,26,4,3,4,1,1,1.0,2.0,1.5,115.1,2087,0.0,1.0,102
5,2,45,1,1,2,33,31,3,2,3,1,1,1.0,2.0,2.67,117.77,6201,0.0,1.0,102
5,2,46,1,1,3,46,30,4,3,4,1,1,1.0,2.0,1.62,119.39,3535,0.0,1.0,102
5,2,47,1,1,4,39,30,3,4,3,1,1,1.0,2.0,2.25,121.64,1583,0.0,1.0,102
5,2,48,1,1,5,9,14,5,2,5,1,1,1.0,2.0,2.1,123.74,3496,0.0,1.0,102
5,2,49,1,2,1,4,1,2,3,2,1,1,2.0,1.0,3.89,127.63,2110,1.0,1.0,102
5,2,50,1,2,2,38,19,4,5,4,1,1,2.0,1.0,3.74,131.37,1678,1.0,1.0,102
5,2,51,1,2,3,37,26,5,4,4,2,1,1.0,2.0,1.97,133.34,3838,0.0,2.0,102
5,2,52,1,1,1,30,20,5,4,5,1,1,1.0,2.0,1.52,134.86,8176,0.0,2.0,102
5,2,53,1,1,2,25,38,5,3,5,1,1,1.0,2.0,2.29,137.15,3434,0.0,1.0,102
5,2,54,1,1,3,34,16,4,2,2,2,1,2.0,1.0,4.06,141.21,8087,1.0,2.0,102
5,2,55,1,1,4,10,24,3,4,4,2,1,2.0,1.0,4.2,145.41,3024,1.0,1.0,102
5,2,56,1,2,1,39,24,3,2,3,1,1,2.0,1.0,4.07,149.48,4129,1.0,2.0,102
5,2,57,1,2,2,31,43,4,3,4,1,1,2.0,1.0,3.92,153.4,4191,1.0,1.0,102
5,2,58,1,2,3,50,32,2,5,2,1,1,2.0,1.0,4.04,157.44,2719,1.0,1.0,102
5,2,59,1,2,4,37,44,2,3,2,1,1,2.0,1.0,3.88,161.32,1528,1.0,1.0,102
5,2,60,1,2,5,17,28,2,5,2,1,1,2.0,1.0,4.0,165.32,1173,1.0,1.0,102
5,2,61,1,1,1,42,5,3,4,4,2,1,2.0,1.0,3.99,169.31,4848,1.0,2.0,102
5,2,62,1,1,2,17,4,5,3,3,2,1,2.0,1.0,4.0,173.31,1833,1.0,1.0,102
5,2,63,1,1,3,23,52,5,2,2,2,1,2.0,1.0,3.96,177.27,2559,1.0,1.0,102
5,2,64,1,1,4,39,13,4,5,5,2,1,2.0,1.0,4.13,181.4,3414,1.0,1.0,102
5,2,65,1,1,5,11,20,3,5,5,2,1,2.0,1.0,3.78,185.18,1471,1.0,1.0,102
5,2,66,1,1,6,11,19,5,2,2,2,1,2.0,1.0,4.05,189.23,2661,1.0,1.0,102
5,2,67,1,2,1,46,37,2,3,2,1,1,2.0,1.0,4.11,193.34,2143,1.0,2.0,102
5,2,68,1,2,2,47,6,2,4,2,1,1,2.0,1.0,4.09,197.43,1852,1.0,1.0,102
5,2,69,1,1,1,50,22,4,5,5,2,1,2.0,1.0,4.07,201.5,2220,1.0,2.0,102
5,2,70,1,1,2,17,26,4,5,4,1,1,1.0,2.0,2.02,203.52,1997,0.0,2.0,102
5,2,71,1,1,3,2,39,4,2,2,2,1,2.0,1.0,4.08,207.6,3833,1.0,2.0,102
5,2,72,1,2,1,38,19,4,3,3,2,1,1.0,2.0,2.27,209.87,2623,0.0,1.0,102
5,2,73,1,2,2,26,3,3,5,3,1,1,2.0,1.0,3.97,213.84,2449,1.0,2.0,102
5,2,74,1,2,3,1,14,2,5,2,1,1,2.0,1.0,3.96,217.8,3694,1.0,1.0,102
5,2,75,1,2,4,25,38,5,3,5,1,1,2.0,1.0,3.97,221.77,2247,1.0,1.0,102
5,2,76,1,1,1,49,17,2,5,2,1,1,1.0,2.0,1.3,223.07,3896,0.0,1.0,102
5,2,77,1,2,1,36,11,2,4,2,1,1,2.0,1.0,3.97,227.04,4063,1.0,1.0,102
5,2,78,1,2,2,20,44,3,5,3,1,1,2.0,1.0,4.01,231.05,2280,1.0,1.0,102
5,2,79,1,2,3,33,40,3,5,3,1,1,2.0,1.0,4.04,235.09,3118,1.0,1.0,102
5,2,80,1,2,4,6,14,2,4,2,1,1,2.0,1.0,4.17,239.26,1791,1.0,1.0,102
5,2,81,1,2,5,30,42,3,2,3,1,1,2.0,1.0,3.96,243.22,2822,1.0,1.0,102
5,2,82,1,2,6,6,11,3,5,3,1,1,2.0,1.0,4.07,247.29,3863,1.0,1.0,102
5,2,83,1,1,1,34,8,4,5,5,2,1,2.0,1.0,4.09,251.38,2215,1.0,2.0,102
5,2,84,1,1,2,27,19,2,4,4,2,1,2.0,1.0,4.11,255.49,3823,1.0,1.0,102
5,2,1,2,2,1,21,36,3,4,3,1,1,2.0,1.0,3.88,259.37,2006,1.0,,102
5,2,2,2,2,2,16,47,5,2,5,1,1,2.0,1.0,4.02,263.39,3206,1.0,1.0,102
5,2,3,2,1,1,41,29,2,5,5,2,1,2.0,1.0,4.03,267.42,2696,1.0,2.0,102
5,2,4,2,1,2,43,2,2,3,3,2,1,2.0,1.0,3.88,271.3,2785,1.0,1.0,102
5,2,5,2,1,3,39,2,5,3,3,2,1,2.0,1.0,3.91,275.21,1391,1.0,1.0,102
5,2,6,2,1,4,17,36,5,2,5,1,1,1.0,2.0,2.51,277.72,1727,0.0,2.0,102
5,2,7,2,1,5,36,48,4,5,5,2,1,2.0,1.0,3.98,281.7,2932,1.0,2.0,102
5,2,8,2,2,1,46,49,5,4,5,1,1,2.0,1.0,4.05,285.75,2271,1.0,2.0,102
5,2,9,2,2,2,42,39,5,3,5,1,1,2.0,1.0,4.01,289.76,4840,1.0,1.0,102
5,2,10,2,2,3,17,40,2,5,2,1,1,2.0,1.0,3.93,293.69,2631,1.0,1.0,102
5,2,11,2,1,1,54,31,3,5,3,1,1,1.0,2.0,1.74,295.43,3933,0.0,1.0,102
5,2,12,2,1,2,5,13,4,3,3,2,1,2.0,1.0,4.05,299.48,3418,1.0,2.0,102
5,2,13,2,2,1,29,13,4,2,3,0,0,0.0,0.0,0.0,299.48,3262,,,102
5,2,14,2,2,2,25,48,4,3,4,1,1,2.0,1.0,3.89,303.37,2911,1.0,,102
5,2,15,2,2,3,40,17,3,2,3,1,1,2.0,1.0,4.09,307.46,5654,1.0,1.0,102
5,2,16,2,2,4,49,10,3,2,3,1,1,2.0,1.0,4.07,311.53,3559,1.0,1.0,102
5,2,17,2,2,5,13,15,4,5,4,1,1,2.0,1.0,3.9,315.43,3606,1.0,1.0,102
5,2,18,2,2,6,46,16,2,4,2,1,1,2.0,1.0,3.97,319.4,2313,1.0,1.0,102
5,2,19,2,1,1,28,1,4,2,2,2,1,2.0,1.0,3.86,323.26,3432,1.0,2.0,102
5,2,20,2,2,1,6,10,2,4,2,1,1,2.0,1.0,3.74,327.0,2334,1.0,2.0,102
5,2,21,2,1,1,33,10,2,5,5,2,1,2.0,1.0,4.12,331.12,3183,1.0,2.0,102
5,2,22,2,1,2,40,12,5,3,3,2,1,2.0,1.0,3.94,335.06,4119,1.0,1.0,102
5,2,23,2,1,3,48,41,3,4,4,2,1,2.0,1.0,4.04,339.1,2176,1.0,1.0,102
5,2,24,2,1,4,37,45,4,5,5,2,1,2.0,1.0,4.03,343.13,1663,1.0,1.0,102
5,2,25,2,1,5,41,17,5,4,4,2,1,2.0,1.0,4.0,347.13,1222,1.0,1.0,102
5,2,26,2,1,6,5,33,3,5,5,2,1,2.0,1.0,3.88,351.01,3329,1.0,1.0,102
5,2,27,2,2,1,49,48,4,5,5,2,1,1.0,2.0,1.55,352.56,2344,0.0,1.0,102
5,2,28,2,2,2,29,1,2,5,2,1,1,2.0,1.0,3.96,356.52,2999,1.0,2.0,102
5,2,29,2,2,3,14,25,3,4,3,1,1,2.0,1.0,3.86,360.38,3126,1.0,1.0,102
5,2,30,2,2,4,46,7,2,4,2,1,1,2.0,1.0,3.88,364.26,2327,1.0,1.0,102
5,2,31,2,2,5,31,7,2,4,2,1,1,2.0,1.0,4.17,368.43,3679,1.0,1.0,102
5,2,32,2,1,1,18,23,2,4,4,2,1,2.0,1.0,4.01,372.44,2256,1.0,2.0,102
5,2,33,2,1,2,24,3,3,4,4,2,1,2.0,1.0,3.86,376.3,1261,1.0,1.0,102
5,2,34,2,1,3,45,42,3,5,5,2,1,2.0,1.0,4.0,380.3,3878,1.0,1.0,102
5,2,35,2,1,4,25,9,3,4,4,2,1,2.0,1.0,3.87,384.17,2063,1.0,1.0,102
5,2,36,2,2,1,25,15,4,5,4,1,1,2.0,1.0,3.84,388.01,1894,1.0,2.0,102
5,2,37,2,2,2,30,40,4,5,4,1,1,2.0,1.0,3.97,391.98,3239,1.0,1.0,102
5,2,38,2,2,3,24,42,5,4,5,1,1,2.0,1.0,4.11,396.09,2534,1.0,1.0,102
5,2,39,2,2,4,16,4,2,3,2,1,1,2.0,1.0,4.02,400.11,2591,1.0,1.0,102
5,2,40,2,1,1,27,17,3,2,2,2,1,2.0,1.0,4.08,404.19,1761,1.0,2.0,102
5,2,41,2,1,2,8,14,3,5,5,2,1,2.0,1.0,3.86,408.05,3584,1.0,1.0,102
5,2,42,2,1,3,48,3,5,4,4,2,1,2.0,1.0,3.95,412.0,1382,1.0,1.0,102
5,2,43,2,2,1,53,38,2,5,2,1,1,2.0,1.0,3.97,415.97,3974,1.0,2.0,102
5,2,44,2,2,2,38,54,3,2,3,1,1,2.0,1.0,3.86,419.83,5415,1.0,1.0,102
5,2,45,2,2,3,14,29,4,2,4,1,1,2.0,1.0,3.84,423.67,4832,1.0,1.0,102
5,2,46,2,2,4,32,42,5,4,5,1,1,2.0,1.0,4.11,427.78,4200,1.0,1.0,102
5,2,47,2,2,5,29,35,3,2,4,0,0,0.0,0.0,0.0,427.78,3791,,,102
5,2,48,2,1,1,39,28,3,4,3,1,1,1.0,2.0,2.01,429.79,1711,0.0,,102
5,2,49,2,1,2,44,9,4,3,3,2,1,2.0,1.0,3.92,433.71,3189,1.0,2.0,102
5,2,50,2,1,3,33,31,2,3,3,2,1,2.0,1.0,4.09,437.8,3321,1.0,1.0,102
5,2,51,2,1,4,27,9,5,2,2,2,1,2.0,1.0,4.03,441.83,3334,1.0,1.0,102
5,2,52,2,1,5,44,31,2,3,2,1,1,1.0,2.0,1.53,443.36,5174,0.0,2.0,102
5,2,53,2,2,1,31,37,5,3,3,2,1,1.0,2.0,2.63,445.99,1593,0.0,2.0,102
5,2,54,2,2,2,11,51,4,3,4,1,1,2.0,1.0,4.03,450.02,3006,1.0,2.0,102
5,2,55,2,1,1,5,27,5,3,3,2,1,2.0,1.0,4.17,454.19,2719,1.0,2.0,102
5,2,56,2,1,2,51,24,4,3,3,2,1,2.0,1.0,4.13,458.32,1656,1.0,1.0,102
5,2,57,2,2,1,54,2,3,2,3,1,1,2.0,1.0,3.92,462.24,3632,1.0,2.0,102
5,2,58,2,2,2,38,45,4,2,4,1,1,2.0,1.0,3.85,466.09,2302,1.0,1.0,102
5,2,59,2,2,3,34,54,2,3,2,1,1,2.0,1.0,3.99,470.08,3968,1.0,1.0,102
5,2,60,2,1,1,53,22,5,3,5,1,1,1.0,2.0,1.84,471.92,4615,0.0,1.0,102
5,2,61,2,1,2,8,14,4,3,3,2,1,2.0,1.0,3.9,475.82,3990,1.0,2.0,102
5,2,62,2,1,3,32,43,5,2,2,2,1,2.0,1.0,4.06,479.88,2271,1.0,1.0,102
5,2,63,2,1,4,54,23,5,3,3,2,1,2.0,1.0,4.18,484.06,2677,1.0,1.0,102
5,2,64,2,1,5,53,10,4,3,3,2,1,2.0,1.0,3.94,488.0,4280,1.0,1.0,102
5,2,65,2,1,6,44,13,2,5,5,2,1,2.0,1.0,3.9,491.9,3792,1.0,1.0,102
5,2,66,2,2,1,32,28,4,2,4,1,1,2.0,1.0,3.97,495.87,3359,1.0,2.0,102
5,2,67,2,2,2,40,33,5,2,5,1,1,2.0,1.0,4.08,499.95,1839,1.0,1.0,102
5,2,68,2,2,3,44,47,3,5,3,1,1,2.0,1.0,3.9,503.85,2146,1.0,1.0,102
5,2,69,2,2,4,42,50,3,4,3,1,1,2.0,1.0,3.86,507.71,1776,1.0,1.0,102
5,2,70,2,1,1,5,18,2,3,3,2,1,2.0,1.0,3.99,511.7,3709,1.0,2.0,102
5,2,71,2,2,1,33,40,5,4,5,1,1,2.0,1.0,3.99,515.69,3551,1.0,2.0,102
5,2,72,2,2,2,40,14,3,5,3,1,1,2.0,1.0,4.06,519.75,2111,1.0,1.0,102
5,2,73,2,2,3,46,38,4,2,4,1,1,2.0,1.0,3.93,523.68,2622,1.0,1.0,102
5,2,74,2,2,4,43,9,5,2,5,1,1,2.0,1.0,3.98,527.66,1703,1.0,1.0,102
5,2,75,2,2,5,44,6,3,2,3,1,1,2.0,1.0,3.95,531.61,2351,1.0,1.0,102
5,2,76,2,2,6,47,35,2,4,3,0,0,0.0,0.0,0.0,531.61,2168,,,102
5,2,77,2,1,1,41,25,4,5,5,2,1,2.0,1.0,3.99,535.6,1750,1.0,,102
5,2,78,2,1,2,35,16,2,4,4,2,1,2.0,1.0,4.18,539.78,4893,1.0,1.0,102
5,2,79,2,1,3,2,52,2,3,3,2,1,2.0,1.0,3.93,543.71,3966,1.0,1.0,102
5,2,80,2,1,4,30,5,3,5,5,2,1,2.0,1.0,3.84,547.55,1716,1.0,1.0,102
5,2,81,2,2,1,46,11,4,2,4,1,1,2.0,1.0,4.06,551.61,6862,1.0,2.0,102
5,2,82,2,1,1,26,38,5,2,2,2,1,2.0,1.0,3.89,555.5,3054,1.0,2.0,102
5,2,83,2,1,2,44,48,2,5,5,2,1,2.0,1.0,4.0,559.5,2920,1.0,1.0,102
5,2,84,2,1,3,11,43,5,4,4,2,1,2.0,1.0,3.93,563.43,2319,1.0,1.0,102
5,2,1,3,1,1,32,44,2,4,4,2,1,2.0,1.0,4.06,567.49,5207,1.0,,102
5,2,2,3,1,2,30,6,5,2,2,2,1,2.0,1.0,4.07,571.56,1533,1.0,1.0,102
5,2,3,3,1,3,19,53,2,4,4,2,1,2.0,1.0,3.98,575.54,2728,1.0,1.0,102
5,2,4,3,2,1,3,40,2,3,2,1,1,2.0,1.0,3.76,579.3,3974,1.0,2.0,102
5,2,5,3,2,2,26,12,4,5,4,1,1,2.0,1.0,4.02,583.32,2782,1.0,1.0,102
5,2,6,3,2,3,7,24,3,4,3,1,1,2.0,1.0,4.19,587.51,2361,1.0,1.0,102
5,2,7,3,1,1,14,13,3,4,4,2,1,2.0,1.0,4.12,591.63,3775,1.0,2.0,102
5,2,8,3,1,2,17,33,5,2,2,2,1,2.0,1.0,3.81,595.44,3542,1.0,1.0,102
5,2,9,3,1,3,20,41,3,4,4,2,1,2.0,1.0,3.99,599.43,4007,1.0,1.0,102
5,2,10,3,1,4,35,33,4,3,3,2,1,2.0,1.0,3.92,603.35,4374,1.0,1.0,102
5,2,11,3,1,5,52,16,3,5,5,2,1,2.0,1.0,3.88,607.23,3477,1.0,1.0,102
5,2,12,3,2,1,14,8,2,5,2,1,1,2.0,1.0,3.85,611.08,3127,1.0,2.0,102
5,2,13,3,1,1,3,28,5,3,3,2,1,2.0,1.0,4.03,615.11,2790,1.0,2.0,102
5,2,14,3,1,2,14,20,3,5,5,2,1,2.0,1.0,3.95,619.06,1911,1.0,1.0,102
5,2,15,3,2,1,41,3,2,3,2,1,1,2.0,1.0,4.01,623.07,2623,1.0,2.0,102
5,2,16,3,2,2,21,25,4,5,4,1,1,2.0,1.0,3.96,627.03,1679,1.0,1.0,102
5,2,17,3,2,3,21,16,4,3,4,1,1,2.0,1.0,3.95,630.98,1367,1.0,1.0,102
5,2,18,3,2,4,15,31,4,2,4,1,1,2.0,1.0,4.04,635.02,4183,1.0,1.0,102
5,2,19,3,2,5,18,33,3,2,3,1,1,2.0,1.0,4.09,639.11,4334,1.0,1.0,102
5,2,20,3,2,6,49,33,5,4,5,1,1,2.0,1.0,4.25,643.36,2261,1.0,1.0,102
5,2,21,3,1,1,22,49,4,3,4,1,1,1.0,2.0,1.36,644.72,2560,0.0,1.0,102
5,2,22,3,2,1,17,34,5,4,5,1,1,2.0,1.0,3.88,648.6,4198,1.0,1.0,102
5,2,23,3,2,2,54,6,4,2,4,1,1,2.0,1.0,4.12,652.72,3631,1.0,1.0,102
5,2,24,3,1,1,33,7,3,4,4,2,1,2.0,1.0,3.95,656.67,1959,1.0,2.0,102
5,2,25,3,1,2,4,48,3,5,5,2,1,2.0,1.0,3.84,660.51,2552,1.0,1.0,102
5,2,26,3,1,3,33,46,2,3,3,2,1,2.0,1.0,4.04,664.55,3079,1.0,1.0,102
5,2,27,3,1,4,24,16,5,4,4,2,1,2.0,1.0,4.18,668.73,3534,1.0,1.0,102
5,2,28,3,2,1,13,27,3,2,3,1,1,2.0,1.0,4.08,672.81,4485,1.0,2.0,102
5,2,29,3,2,2,49,1,2,5,2,1,1,2.0,1.0,4.23,677.04,3017,1.0,1.0,102
5,2,30,3,2,3,13,7,3,5,3,1,1,2.0,1.0,4.06,681.1,3529,1.0,1.0,102
5,2,31,3,2,4,54,39,4,3,4,1,1,2.0,1.0,4.22,685.32,3861,1.0,1.0,102
5,2,32,3,1,1,7,3,4,2,2,2,1,2.0,1.0,3.96,689.28,1623,1.0,2.0,102
5,2,33,3,1,2,35,1,3,4,4,2,1,2.0,1.0,3.87,693.15,3611,1.0,1.0,102
5,2,34,3,1,3,3,26,3,4,3,1,1,1.0,2.0,1.9,695.05,2446,0.0,2.0,102
5,2,35,3,1,4,52,53,5,3,3,2,1,2.0,1.0,4.14,699.19,3255,1.0,2.0,102
5,2,36,3,1,5,53,15,5,4,4,2,1,2.0,1.0,3.87,703.06,4192,1.0,1.0,102
5,2,37,3,1,6,48,23,3,2,2,2,1,2.0,1.0,4.07,707.13,1670,1.0,1.0,102
5,2,38,3,2,1,41,31,3,5,5,2,1,1.0,2.0,1.72,708.85,4098,0.0,1.0,102
5,2,39,3,2,2,8,31,2,5,2,1,1,2.0,1.0,4.06,712.91,1807,1.0,2.0,102
5,2,40,3,2,3,9,49,5,2,2,2,1,1.0,2.0,1.48,714.39,2879,0.0,2.0,102
5,2,41,3,2,4,45,13,2,4,2,1,1,2.0,1.0,4.01,718.4,3824,1.0,2.0,102
5,2,42,3,2,5,9,29,3,5,3,1,1,2.0,1.0,3.76,722.16,3949,1.0,1.0,102
5,2,43,3,1,1,8,11,4,5,4,1,1,1.0,2.0,1.77,723.93,10049,0.0,1.0,102
5,2,44,3,1,2,3,49,4,5,4,1,1,1.0,2.0,2.22,726.15,1564,0.0,1.0,102
5,2,45,3,1,3,51,50,3,2,2,2,1,2.0,1.0,3.96,730.11,2535,1.0,2.0,102
5,2,46,3,1,4,12,26,5,2,2,2,1,2.0,1.0,4.15,734.26,2532,1.0,1.0,102
5,2,47,3,1,5,38,3,2,5,5,2,1,2.0,1.0,3.93,738.19,4256,1.0,1.0,102
5,2,48,3,1,6,3,11,5,3,3,2,1,2.0,1.0,3.73,741.92,2826,1.0,1.0,102
5,2,49,3,2,1,15,51,2,3,2,1,1,2.0,1.0,3.85,745.77,3888,1.0,2.0,102
5,2,50,3,2,2,8,31,5,3,5,1,1,2.0,1.0,4.12,749.89,2263,1.0,1.0,102
5,2,51,3,1,1,20,19,5,4,4,2,1,2.0,1.0,3.99,753.88,2046,1.0,2.0,102
5,2,52,3,1,2,11,25,4,2,2,2,1,2.0,1.0,4.04,757.92,2215,1.0,1.0,102
5,2,53,3,1,3,23,17,4,3,3,2,1,2.0,1.0,4.11,762.03,4991,1.0,1.0,102
5,2,54,3,1,4,28,33,4,2,2,2,1,2.0,1.0,3.75,765.78,4375,1.0,1.0,102
5,2,55,3,1,5,5,32,5,3,3,2,1,2.0,1.0,3.92,769.7,3119,1.0,1.0,102
5,2,56,3,2,1,41,4,2,3,3,2,1,1.0,2.0,1.67,771.37,1182,0.0,1.0,102
5,2,57,3,2,2,48,42,3,2,3,1,1,2.0,1.0,3.88,775.25,2607,1.0,2.0,102
5,2,58,3,2,3,1,45,2,4,2,1,1,2.0,1.0,3.98,779.23,2792,1.0,1.0,102
5,2,59,3,1,1,28,51,2,4,4,2,1,2.0,1.0,4.18,783.41,4288,1.0,2.0,102
5,2,60,3,2,1,26,49,4,5,4,1,1,2.0,1.0,4.0,787.41,2422,1.0,2.0,102
5,2,61,3,1,1,44,5,3,4,4,2,1,2.0,1.0,4.14,791.55,2038,1.0,2.0,102
5,2,62,3,1,2,24,35,4,3,3,2,1,2.0,1.0,3.92,795.47,3741,1.0,1.0,102
5,2,63,3,2,1,40,22,5,4,4,2,1,1.0,2.0,2.0,797.47,2347,0.0,1.0,102
5,2,64,3,2,2,51,30,5,4,5,1,1,2.0,1.0,3.91,801.38,3566,1.0,2.0,102
5,2,65,3,2,3,49,16,4,5,4,1,1,2.0,1.0,4.07,805.45,2175,1.0,1.0,102
5,2,66,3,2,4,48,45,4,5,4,1,1,2.0,1.0,3.97,809.42,2974,1.0,1.0,102
5,2,67,3,2,5,3,48,4,3,4,1,1,2.0,1.0,4.06,813.48,1607,1.0,1.0,102
5,2,68,3,1,1,31,49,3,2,2,2,1,2.0,1.0,4.08,817.56,3424,1.0,2.0,102
5,2,69,3,1,2,37,15,5,2,2,2,1,2.0,1.0,3.99,821.55,1510,1.0,1.0,102
5,2,70,3,1,3,54,20,2,4,4,2,1,2.0,1.0,4.1,825.65,2438,1.0,1.0,102
5,2,71,3,2,1,5,24,2,5,2,1,1,2.0,1.0,4.27,829.92,1871,1.0,2.0,102
5,2,72,3,2,2,16,6,2,3,3,2,1,1.0,2.0,2.25,832.17,1096,0.0,2.0,102
5,2,73,3,2,3,36,8,5,2,5,1,1,2.0,1.0,4.0,836.17,3002,1.0,2.0,102
5,2,74,3,2,4,18,20,5,2,2,2,1,1.0,2.0,2.43,838.6,1528,0.0,2.0,102
5,2,75,3,2,5,44,16,3,2,3,1,1,2.0,1.0,4.01,842.61,2287,1.0,2.0,102
5,2,76,3,2,6,25,40,5,3,5,1,1,2.0,1.0,3.87,846.48,2391,1.0,1.0,102
5,2,77,3,1,1,53,13,5,3,5,1,1,1.0,2.0,2.23,848.71,3458,0.0,1.0,102
5,2,78,3,1,2,2,52,4,2,2,2,1,2.0,1.0,4.0,852.71,3086,1.0,2.0,102
5,2,79,3,1,3,23,37,2,4,4,2,1,2.0,1.0,3.97,856.68,1733,1.0,1.0,102
5,2,80,3,1,4,53,30,3,5,3,1,1,1.0,2.0,2.6,859.28,3944,0.0,2.0,102
5,2,81,3,2,1,9,39,2,5,2,1,1,2.0,1.0,4.22,863.5,6543,1.0,1.0,102
5,2,82,3,2,2,46,33,2,5,5,2,1,1.0,2.0,1.75,865.25,5081,0.0,2.0,102
5,2,83,3,2,3,40,21,4,2,4,1,1,2.0,1.0,4.01,869.26,1595,1.0,2.0,102
5,2,84,3,2,4,48,13,2,3,2,1,1,2.0,1.0,3.9,873.16,3500,1.0,1.0,102
5,2,1,4,2,1,7,36,5,4,5,1,1,2.0,1.0,4.08,877.24,1590,1.0,,102
5,2,2,4,1,1,16,19,3,4,4,2,1,2.0,1.0,3.72,880.96,2927,1.0,2.0,102
5,2,3,4,1,2,8,2,4,5,5,2,1,2.0,1.0,4.12,885.08,2815,1.0,1.0,102
5,2,4,4,2,1,6,17,4,3,3,2,1,1.0,2.0,2.1,887.18,5817,0.0,1.0,102
5,2,5,4,2,2,26,13,5,3,3,2,1,1.0,2.0,2.12,889.3,4326,0.0,1.0,102
5,2,6,4,2,3,47,15,2,5,2,1,1,2.0,1.0,4.14,893.44,2535,1.0,2.0,102
5,2,7,4,2,4,47,31,2,4,2,1,1,2.0,1.0,3.97,897.41,2541,1.0,1.0,102
5,2,8,4,1,1,13,17,4,3,4,1,1,1.0,2.0,1.94,899.35,3572,0.0,1.0,102
5,2,9,4,1,2,26,51,2,5,2,1,1,1.0,2.0,1.4,900.75,3380,0.0,1.0,102
5,2,10,4,1,3,35,6,4,5,5,2,1,2.0,1.0,3.8,904.55,1495,1.0,2.0,102
5,2,11,4,1,4,51,32,2,4,4,2,1,2.0,1.0,3.92,908.47,3647,1.0,1.0,102
5,2,12,4,1,5,15,47,2,4,4,2,1,2.0,1.0,4.03,912.5,1881,1.0,1.0,102
5,2,13,4,1,6,6,42,4,2,2,2,1,2.0,1.0,3.94,916.44,3780,1.0,1.0,102
5,2,14,4,2,1,35,46,5,2,2,2,1,1.0,2.0,1.37,917.81,2104,0.0,1.0,102
5,2,15,4,2,2,8,41,5,2,5,1,1,2.0,1.0,4.13,921.94,2854,1.0,2.0,102
5,2,16,4,2,3,13,39,2,5,2,1,1,2.0,1.0,3.92,925.86,3521,1.0,1.0,102
5,2,17,4,1,1,49,48,3,4,4,2,1,2.0,1.0,4.0,929.86,2685,1.0,2.0,102
5,2,18,4,1,2,54,33,2,4,4,2,1,2.0,1.0,4.0,933.86,4272,1.0,1.0,102
5,2,19,4,1,3,27,36,4,3,3,2,1,2.0,1.0,3.97,937.83,4726,1.0,1.0,102
5,2,20,4,1,4,26,13,2,3,3,2,1,2.0,1.0,4.05,941.88,3064,1.0,1.0,102
5,2,21,4,1,5,29,34,4,3,3,2,1,2.0,1.0,3.97,945.85,3631,1.0,1.0,102
5,2,22,4,2,1,35,10,4,5,5,2,1,1.0,2.0,1.22,947.07,13039,0.0,1.0,102
5,2,23,4,2,2,34,49,3,2,3,1,1,2.0,1.0,3.88,950.95,3151,1.0,2.0,102
5,2,24,4,1,1,26,52,2,5,2,1,1,1.0,2.0,2.11,953.06,2822,0.0,1.0,102
5,2,25,4,2,1,50,15,2,3,2,1,1,2.0,1.0,3.85,956.91,2777,1.0,1.0,102
5,2,26,4,2,2,11,23,5,4,5,1,1,2.0,1.0,3.96,960.87,2574,1.0,1.0,102
5,2,27,4,2,3,23,46,5,2,2,2,1,1.0,2.0,1.56,962.43,5486,0.0,2.0,102
5,2,28,4,2,4,3,11,3,5,3,1,1,2.0,1.0,3.86,966.29,3775,1.0,2.0,102
5,2,29,4,2,5,25,46,4,2,4,1,1,2.0,1.0,3.88,970.17,2249,1.0,1.0,102
5,2,30,4,2,6,13,1,4,2,4,1,1,2.0,1.0,3.95,974.12,3180,1.0,1.0,102
5,2,31,4,1,1,19,18,5,3,5,1,1,1.0,2.0,2.08,976.2,8806,0.0,1.0,102
5,2,32,4,1,2,28,40,5,2,5,1,1,1.0,2.0,1.95,978.15,7496,0.0,1.0,102
5,2,33,4,1,3,2,7,5,3,3,2,1,2.0,1.0,4.13,982.28,4614,1.0,2.0,102
5,2,34,4,2,1,5,42,3,2,3,1,1,2.0,1.0,3.97,986.25,6663,1.0,2.0,102
5,2,35,4,2,2,31,16,2,4,2,1,1,2.0,1.0,3.82,990.07,4536,1.0,1.0,102
5,2,36,4,2,3,31,19,4,2,4,1,1,2.0,1.0,4.0,994.07,2862,1.0,1.0,102
5,2,37,4,2,4,7,12,4,2,4,1,1,2.0,1.0,4.01,998.08,1949,1.0,1.0,102
5,2,38,4,2,5,38,2,5,4,5,1,1,2.0,1.0,4.04,1002.12,4934,1.0,1.0,102
5,2,39,4,1,1,50,23,5,3,3,2,1,2.0,1.0,4.06,1006.18,2614,1.0,2.0,102
5,2,40,4,1,2,35,47,4,5,5,2,1,2.0,1.0,4.15,1010.33,7135,1.0,1.0,102
5,2,41,4,1,3,41,33,3,2,2,2,1,2.0,1.0,3.94,1014.27,2766,1.0,1.0,102
5,2,42,4,1,4,10,6,3,4,4,2,1,2.0,1.0,4.03,1018.3,2973,1.0,1.0,102
5,2,43,4,2,1,26,41,3,4,3,1,1,2.0,1.0,4.0,1022.3,5005,1.0,2.0,102
5,2,44,4,1,1,12,33,5,3,3,2,1,2.0,1.0,3.93,1026.23,3192,1.0,2.0,102
5,2,45,4,1,2,28,10,3,5,4,0,0,0.0,0.0,0.0,1026.23,3158,,,102
5,2,46,4,1,3,54,13,2,4,4,2,1,2.0,1.0,4.25,1030.48,2803,1.0,,102
5,2,47,4,1,4,47,25,4,5,5,2,1,2.0,1.0,3.97,1034.45,1853,1.0,1.0,102
5,2,48,4,1,5,32,52,5,2,2,2,1,2.0,1.0,3.83,1038.28,3533,1.0,1.0,102
5,2,49,4,2,1,29,43,3,5,5,2,1,1.0,2.0,2.83,1041.11,1783,0.0,1.0,102
5,2,50,4,2,2,49,9,5,3,5,1,1,2.0,1.0,4.04,1045.15,2040,1.0,2.0,102
5,2,51,4,2,3,43,16,4,2,4,1,1,2.0,1.0,3.87,1049.02,5040,1.0,1.0,102
5,2,52,4,1,1,46,47,3,2,3,1,1,1.0,2.0,2.29,1051.31,4416,0.0,1.0,102
5,2,53,4,1,2,25,12,5,2,5,1,1,1.0,2.0,2.6,1053.91,3023,0.0,1.0,102
5,2,54,4,1,3,8,6,2,5,5,2,1,2.0,1.0,3.89,1057.8,2316,1.0,2.0,102
5,2,55,4,1,4,38,51,2,3,3,2,1,2.0,1.0,4.02,1061.82,8399,1.0,1.0,102
5,2,56,4,2,1,46,8,2,4,2,1,1,2.0,1.0,3.98,1065.8,1671,1.0,2.0,102
5,2,57,4,2,2,54,35,3,4,3,1,1,2.0,1.0,3.86,1069.66,2548,1.0,1.0,102
5,2,58,4,2,3,38,23,5,4,5,1,1,2.0,1.0,4.14,1073.8,4654,1.0,1.0,102
5,2,59,4,2,4,18,49,5,3,5,1,1,2.0,1.0,4.0,1077.8,3277,1.0,1.0,102
5,2,60,4,2,5,24,39,2,5,2,1,1,2.0,1.0,4.06,1081.86,2149,1.0,1.0,102
5,2,61,4,1,1,36,17,5,2,2,2,1,2.0,1.0,3.92,1085.78,3584,1.0,2.0,102
5,2,62,4,1,2,31,19,2,3,3,2,1,2.0,1.0,3.92,1089.7,2127,1.0,1.0,102
5,2,63,4,1,3,6,41,4,3,3,2,1,2.0,1.0,4.04,1093.74,2726,1.0,1.0,102
5,2,64,4,1,4,13,47,3,5,5,2,1,2.0,1.0,4.01,1097.75,2407,1.0,1.0,102
5,2,65,4,1,5,22,32,4,5,5,2,1,2.0,1.0,4.22,1101.97,4518,1.0,1.0,102
5,2,66,4,1,6,13,21,4,2,2,2,1,2.0,1.0,3.97,1105.94,1698,1.0,1.0,102
5,2,67,4,2,1,42,11,3,5,5,2,1,1.0,2.0,3.04,1108.98,4081,0.0,1.0,102
5,2,68,4,2,2,47,49,3,4,3,1,1,2.0,1.0,4.18,1113.16,3268,1.0,2.0,102
5,2,69,4,1,1,33,10,3,2,2,2,1,2.0,1.0,3.77,1116.93,2359,1.0,2.0,102
5,2,70,4,1,2,12,54,2,3,3,2,1,2.0,1.0,3.8,1120.73,3773,1.0,1.0,102
5,2,71,4,1,3,46,51,3,2,2,2,1,2.0,1.0,3.93,1124.66,2622,1.0,1.0,102
5,2,72,4,2,1,5,9,5,4,4,2,1,1.0,2.0,1.91,1126.57,2663,0.0,1.0,102
5,2,73,4,2,2,13,19,2,3,2,1,1,2.0,1.0,4.0,1130.57,4727,1.0,2.0,102
5,2,74,4,2,3,40,33,4,5,4,1,1,2.0,1.0,4.1,1134.67,2625,1.0,1.0,102
5,2,75,4,2,4,38,37,4,3,4,1,1,2.0,1.0,3.91,1138.58,3791,1.0,1.0,102
5,2,76,4,1,1,10,19,2,3,3,2,1,2.0,1.0,3.91,1142.49,4391,1.0,2.0,102
5,2,77,4,2,1,27,28,5,4,5,1,1,2.0,1.0,3.98,1146.47,13453,1.0,2.0,102
5,2,78,4,2,2,31,21,5,4,5,1,1,2.0,1.0,4.0,1150.47,3246,1.0,1.0,102
5,2,79,4,2,3,50,38,3,5,3,1,1,2.0,1.0,4.03,1154.5,4647,1.0,1.0,102
5,2,80,4,2,4,32,26,3,5,3,1,1,2.0,1.0,4.12,1158.62,3416,1.0,1.0,102
5,2,81,4,2,5,2,39,4,3,4,1,1,2.0,1.0,4.07,1162.69,1963,1.0,1.0,102
5,2,82,4,2,6,39,3,3,4,4,2,1,1.0,2.0,1.17,1163.86,3536,0.0,2.0,102
5,2,83,4,1,1,6,40,3,2,2,2,1,2.0,1.0,4.08,1167.94,1370,1.0,1.0,102
5,2,84,4,1,2,46,29,2,5,5,2,1,2.0,1.0,4.1,1172.04,2946,1.0,1.0,102
6,3,1,1,2,1,38,15,3,5,5,2,1,2.0,1.0,3.95,3.95,3934,0.0,,103
6,3,2,1,2,2,28,7,5,3,3,2,1,2.0,1.0,3.8,7.75,2736,0.0,1.0,103
6,3,3,1,2,3,50,34,2,4,4,2,1,2.0,1.0,4.01,11.76,1352,0.0,1.0,103
6,3,4,1,2,4,27,34,4,3,3,2,1,2.0,1.0,4.03,15.79,1159,0.0,1.0,103
6,3,5,1,2,5,14,13,3,4,4,2,1,2.0,1.0,3.86,19.65,3454,0.0,1.0,103
6,3,6,1,2,6,38,32,5,2,3,0,0,0.0,0.0,0.0,19.65,1458,,,103
6,3,7,1,1,1,7,34,2,3,3,2,1,1.0,2.0,2.56,22.21,1698,1.0,,103
6,3,8,1,1,2,4,21,4,5,5,2,1,1.0,2.0,2.56,24.77,3003,1.0,1.0,103
6,3,9,1,1,3,6,35,2,3,3,2,1,1.0,2.0,1.98,26.75,1657,1.0,1.0,103
6,3,10,1,1,4,31,43,2,4,4,2,1,1.0,2.0,2.15,28.9,3452,1.0,1.0,103
6,3,11,1,2,1,20,24,3,4,4,2,1,2.0,1.0,4.02,32.92,4455,0.0,1.0,103
6,3,12,1,2,2,48,30,5,4,4,2,1,2.0,1.0,3.98,36.9,1162,0.0,1.0,103
6,3,13,1,1,1,31,34,5,3,4,0,0,0.0,0.0,0.0,36.9,1866,,,103
6,3,14,1,1,2,4,35,3,4,4,2,1,1.0,2.0,2.34,39.24,1232,1.0,,103
6,3,15,1,1,3,51,4,5,2,2,2,1,1.0,2.0,1.72,40.96,1460,1.0,1.0,103
6,3,16,1,2,1,13,46,3,2,2,2,1,2.0,1.0,4.26,45.22,4775,0.0,1.0,103
6,3,17,1,2,2,27,10,4,2,2,2,1,2.0,1.0,3.98,49.2,9102,0.0,1.0,103
6,3,18,1,2,3,4,10,2,3,3,2,1,2.0,1.0,4.01,53.21,1639,0.0,1.0,103
6,3,19,1,2,4,52,8,2,5,5,2,1,2.0,1.0,4.13,57.34,2379,0.0,1.0,103
6,3,20,1,2,5,1,8,5,3,3,2,1,2.0,1.0,4.01,61.35,3130,0.0,1.0,103
6,3,21,1,1,1,42,9,2,4,4,2,1,1.0,2.0,1.95,63.3,1402,1.0,1.0,103
6,3,22,1,1,2,24,25,3,5,5,2,1,1.0,2.0,1.61,64.91,1879,1.0,1.0,103
6,3,23,1,1,3,40,21,4,3,3,2,1,1.0,2.0,2.14,67.05,2266,1.0,1.0,103
6,3,24,1,1,4,18,48,5,3,3,2,1,1.0,2.0,1.37,68.42,2317,1.0,1.0,103
6,3,25,1,1,5,2,35,3,2,2,2,1,1.0,2.0,2.34,70.76,4453,1.0,1.0,103
6,3,26,1,1,6,31,1,3,4,4,2,1,1.0,2.0,2.77,73.53,1544,1.0,1.0,103
6,3,27,1,2,1,33,30,4,3,3,2,1,2.0,1.0,3.92,77.45,4592,0.0,1.0,103
6,3,28,1,2,2,33,21,2,4,4,2,1,2.0,1.0,4.1,81.55,2990,0.0,1.0,103
6,3,29,1,2,3,8,33,4,3,3,2,1,2.0,1.0,4.15,85.7,1708,0.0,1.0,103
6,3,30,1,2,4,32,28,2,5,5,2,1,2.0,1.0,3.81,89.51,2285,0.0,1.0,103
6,3,31,1,1,1,20,8,4,5,5,2,1,1.0,2.0,1.32,90.83,2711,1.0,1.0,103
6,3,32,1,1,2,2,35,2,3,3,2,1,1.0,2.0,2.27,93.1,3297,1.0,1.0,103
6,3,33,1,2,1,7,46,5,4,4,2,1,2.0,1.0,3.95,97.05,7874,0.0,1.0,103
