SubNo,Group(1=OptHighReward;2=OptLowReward),Block_trial,Block,VarDist_cond,Run_number,Targ1_position,Targ2_position,Red_targ_digit,Blue_targ_digit,Response,Targ_Choice,Acc,OutcomeCond(0=inaccurate;1=lowReward;2=highReward),OutcomeValue,Points,RT,Optimal_Choice,Repeat_Switch
1,1,1,1,1,1,28,46,3,2,3,1,1,1.0,0.45,0.45,2.608,0,
1,1,2,1,1,2,33,19,3,4,3,1,1,1.0,0.3,0.75,1.77,0,1.0
1,1,3,1,2,1,28,41,4,2,4,1,1,2.0,0.56,1.31,1.373,1,1.0
1,1,4,1,2,2,9,30,2,3,3,2,1,1.0,0.53,1.84,1.04,0,2.0
1,1,5,1,1,1,14,4,4,5,4,1,1,1.0,0.36,2.2,2.46,0,2.0
1,1,6,1,1,2,47,37,5,3,3,2,1,2.0,1.06,3.26,2.757,1,2.0
1,1,7,1,1,3,46,39,4,2,4,1,1,1.0,0.64,3.9,2.39,0,2.0
1,1,9,1,1,5,13,36,2,3,2,1,1,1.0,0.5,4.4,1.537,0,
1,1,10,1,2,1,36,3,3,2,3,1,1,2.0,0.65,5.05,2.753,1,1.0
1,1,11,1,1,1,9,19,3,2,3,1,1,1.0,0.52,5.57,3.232,0,1.0
1,1,12,1,1,2,51,43,3,5,3,1,1,1.0,0.48,6.05,4.008,0,1.0
1,1,13,1,1,3,51,16,4,5,4,1,1,1.0,0.59,6.64,0.945,0,1.0
1,1,15,1,1,5,16,25,2,5,2,1,1,1.0,0.43,7.07,9.65,0,
1,1,17,1,2,1,45,47,5,4,5,1,1,2.0,1.53,8.6,3.881,1,
1,1,18,1,2,2,52,17,3,4,4,2,1,1.0,0.48,9.08,3.159,0,2.0
1,1,19,1,2,3,52,45,2,4,4,2,1,1.0,0.51,9.59,2.998,0,1.0
1,1,20,1,2,4,21,24,2,4,4,2,1,1.0,0.63,10.22,1.447,0,1.0
1,1,21,1,2,5,2,48,2,3,3,2,1,1.0,0.51,10.73,5.648,0,1.0
1,1,22,1,2,6,26,42,5,3,3,2,1,1.0,0.49,11.22,5.162,0,1.0
1,1,23,1,1,1,8,6,5,2,5,1,1,1.0,0.4,11.62,3.464,0,2.0
1,1,24,1,1,2,25,28,4,3,4,1,1,1.0,0.53,12.15,1.27,0,1.0
1,1,25,1,1,3,36,11,2,3,3,2,1,2.0,0.84,12.99,6.529,1,2.0
1,1,26,1,1,4,33,21,5,4,4,2,1,2.0,1.27,14.26,2.638,1,1.0
1,1,27,1,2,1,15,12,5,3,3,2,1,1.0,0.42,14.68,2.537,0,1.0
1,1,29,1,2,3,9,21,3,4,4,2,1,1.0,0.6,15.28,1.752,0,
1,1,30,1,2,4,23,54,2,5,5,2,1,1.0,0.65,15.93,3.531,0,1.0
1,1,31,1,2,5,28,36,4,5,5,2,1,1.0,0.31,16.24,4.752,0,1.0
1,1,32,1,1,1,27,4,2,4,2,1,1,1.0,0.33,16.57,3.07,0,2.0
1,1,33,1,1,2,4,31,3,5,3,1,1,1.0,0.57,17.14,15.778,0,1.0
1,1,34,1,1,3,26,7,3,5,5,2,1,2.0,0.31,17.45,2.862,1,2.0
1,1,35,1,2,1,21,33,4,3,4,1,1,2.0,0.83,18.28,11.04,1,2.0
1,1,36,1,2,2,47,49,2,5,2,1,1,2.0,0.88,19.16,2.257,1,1.0
1,1,37,1,2,3,39,1,5,3,5,1,1,2.0,0.84,20.0,2.568,1,1.0
1,1,38,1,2,4,39,49,3,4,4,2,1,1.0,0.65,20.65,8.017,0,2.0
1,1,39,1,1,1,1,52,4,5,5,2,1,2.0,0.82,21.47,5.122,1,1.0
1,1,40,1,2,1,50,16,2,4,4,2,1,1.0,0.64,22.11,3.104,0,1.0
1,1,41,1,2,2,12,18,4,3,3,2,1,1.0,0.36,22.47,3.18,0,1.0
1,1,42,1,2,3,29,20,3,4,4,2,1,1.0,0.5,22.97,2.131,0,1.0
1,1,43,1,1,1,35,32,5,4,5,1,1,1.0,0.48,23.45,5.123,0,2.0
1,1,44,1,2,1,31,5,5,2,2,2,1,1.0,0.31,23.76,6.095,0,2.0
1,1,45,1,2,2,29,5,2,5,5,2,1,1.0,0.53,24.29,2.284,0,1.0
1,1,46,1,2,3,54,24,4,5,4,1,1,2.0,0.0,24.29,5.227,1,2.0
1,1,47,1,2,4,17,2,3,4,4,2,1,1.0,0.67,24.96,6.327,0,2.0
1,1,48,1,2,5,1,53,3,2,2,2,1,1.0,0.41,25.37,5.216,0,1.0
1,1,49,1,1,1,28,2,5,3,3,2,1,2.0,0.75,26.12,4.642,1,1.0
1,1,50,1,1,2,24,17,4,2,2,2,1,2.0,0.6,26.72,3.08,1,1.0
1,1,51,1,1,3,21,49,5,2,2,2,1,2.0,0.07,26.79,1.544,1,1.0
1,1,52,1,1,4,16,28,4,5,4,1,1,1.0,0.24,27.03,3.904,0,2.0
1,1,53,1,2,1,38,13,2,3,3,2,1,1.0,0.49,27.52,4.12,0,2.0
1,1,54,1,2,2,44,14,5,4,4,2,1,1.0,0.38,27.9,1.24,0,1.0
1,1,55,1,2,3,50,15,5,4,4,2,1,1.0,0.57,28.47,2.271,0,1.0
1,1,56,1,1,1,24,32,5,4,5,1,1,1.0,0.56,29.03,3.367,0,2.0
1,1,57,1,1,2,49,29,2,4,2,1,1,1.0,0.7,29.73,3.968,0,1.0
1,1,58,1,1,3,39,19,3,2,3,1,1,1.0,0.57,30.3,3.776,0,1.0
1,1,59,1,1,4,19,35,3,5,3,1,1,1.0,0.42,30.72,7.049,0,1.0
1,1,60,1,1,5,52,18,2,4,2,1,1,1.0,0.54,31.26,4.478,0,1.0
1,1,61,1,2,1,49,42,2,4,2,1,1,2.0,0.02,31.28,1.757,1,1.0
1,1,62,1,2,2,33,30,4,5,5,2,1,1.0,0.5,31.78,7.255,0,2.0
1,1,64,1,1,2,5,28,5,2,5,1,1,1.0,0.5,32.77,3.813,0,1.0
1,1,65,1,2,1,35,37,5,3,5,1,1,2.0,0.35,33.12,6.112,1,1.0
1,1,66,1,2,2,33,38,4,2,2,2,1,1.0,0.63,33.75,6.823,0,2.0
1,1,67,1,2,3,42,47,5,2,2,2,1,1.0,0.28,34.03,1.166,0,1.0
1,1,68,1,2,4,28,39,4,3,4,1,1,2.0,0.7,34.73,7.903,1,2.0
1,1,69,1,1,1,54,33,4,3,4,1,1,1.0,0.61,35.34,8.864,0,1.0
1,1,70,1,1,2,37,36,5,3,5,1,1,1.0,0.59,35.93,3.52,0,1.0
1,1,71,1,1,3,10,8,5,4,5,1,1,1.0,0.57,36.5,2.904,0,1.0
1,1,72,1,2,1,18,15,3,5,5,2,1,1.0,0.5,37.0,2.105,0,2.0
1,1,73,1,1,1,46,22,4,3,4,1,1,1.0,0.58,37.58,2.582,0,2.0
1,1,74,1,1,2,7,21,2,3,2,1,1,1.0,0.57,38.15,2.513,0,1.0
1,1,75,1,1,3,52,32,2,3,2,1,1,1.0,0.47,38.62,10.958,0,1.0
1,1,76,1,1,4,22,29,3,5,3,1,1,1.0,0.46,39.08,5.174,0,1.0
1,1,77,1,1,5,25,22,4,3,3,2,1,2.0,0.36,39.44,3.642,1,2.0
1,1,78,1,1,6,30,24,4,2,2,2,1,2.0,0.39,39.83,3.129,1,1.0
1,1,79,1,2,1,30,41,5,2,5,1,1,2.0,0.56,40.39,8.089,1,2.0
1,1,80,1,2,2,52,2,3,2,2,2,1,1.0,0.54,40.93,4.248,0,2.0
1,1,81,1,2,3,44,8,3,5,3,1,1,2.0,1.18,42.11,5.2,1,2.0
1,1,82,1,2,4,18,7,4,2,2,2,1,1.0,0.46,42.57,2.239,0,2.0
1,1,83,1,2,5,17,42,3,4,3,1,1,2.0,0.79,43.36,3.577,1,2.0
1,1,84,1,2,6,50,27,3,2,2,2,1,1.0,0.59,43.95,3.74,0,2.0
1,1,1,2,2,1,51,7,5,2,2,2,1,1.0,0.61,44.56,2.417,0,
1,1,2,2,2,2,42,2,4,2,2,2,1,1.0,0.38,44.94,2.88,0,1.0
1,1,3,2,2,3,50,37,5,4,5,1,1,2.0,0.6,45.54,5.883,1,2.0
1,1,4,2,2,4,33,54,2,3,3,2,1,1.0,0.53,46.07,3.594,0,2.0
1,1,5,2,2,5,49,19,5,2,2,2,1,1.0,0.38,46.45,3.065,0,1.0
1,1,6,2,2,6,31,54,3,2,3,1,1,2.0,0.15,46.6,6.273,1,2.0
1,1,7,2,1,1,1,15,2,3,2,1,1,1.0,0.63,47.23,4.056,0,1.0
1,1,8,2,1,2,17,33,2,3,2,1,1,1.0,0.48,47.71,2.569,0,1.0
1,1,9,2,1,3,17,2,2,5,2,1,1,1.0,0.55,48.26,2.337,0,1.0
1,1,10,2,1,4,29,9,2,5,2,1,1,1.0,0.51,48.77,2.569,0,1.0
1,1,11,2,2,1,52,2,4,3,3,2,1,1.0,0.43,49.2,5.768,0,2.0
1,1,12,2,2,2,18,10,3,2,2,2,1,1.0,0.43,49.63,4.271,0,1.0
1,1,13,2,2,3,37,6,2,5,5,2,1,1.0,0.55,50.18,2.247,0,1.0
1,1,14,2,2,4,5,43,5,2,2,2,1,1.0,0.39,50.57,3.288,0,1.0
1,1,15,2,2,5,33,31,4,5,5,2,1,1.0,0.59,51.16,8.103,0,1.0
1,1,16,2,1,1,30,2,3,5,5,2,1,2.0,0.77,51.93,3.544,1,1.0
1,1,17,2,1,2,27,8,2,4,4,2,1,2.0,0.11,52.04,2.281,1,1.0
1,1,18,2,1,3,18,6,2,5,5,2,1,2.0,0.37,52.41,1.106,1,1.0
1,1,19,2,1,4,33,3,2,4,4,2,1,2.0,0.96,53.37,2.649,1,1.0
1,1,20,2,1,5,16,2,4,2,2,2,1,2.0,0.26,53.63,1.816,1,1.0
1,1,21,2,1,6,15,28,3,5,5,2,1,2.0,0.65,54.28,2.112,1,1.0
1,1,22,2,2,1,11,38,3,5,5,2,1,1.0,0.53,54.81,3.764,0,1.0
1,1,23,2,2,2,39,42,4,5,4,1,1,2.0,0.51,55.32,8.985,1,2.0
1,1,24,2,1,1,6,20,5,2,2,2,1,2.0,0.03,55.35,6.769,1,2.0
1,1,25,2,1,2,27,32,4,3,3,2,1,2.0,0.05,55.4,3.24,1,1.0
1,1,26,2,2,1,2,9,5,2,2,2,1,1.0,0.46,55.86,3.241,0,1.0
1,1,27,2,2,2,45,47,2,4,4,2,1,1.0,0.36,56.22,5.672,0,1.0
1,1,28,2,2,3,41,27,5,4,4,2,1,1.0,0.38,56.6,2.912,0,1.0
1,1,29,2,1,1,18,2,3,4,4,2,1,2.0,1.19,57.79,4.734,1,1.0
1,1,30,2,2,1,29,7,3,5,5,2,1,1.0,0.51,58.3,4.312,0,1.0
1,1,31,2,1,1,21,50,2,3,3,2,1,2.0,0.48,58.78,3.728,1,1.0
1,1,32,2,1,2,43,44,5,3,3,2,1,2.0,0.38,59.16,2.581,1,1.0
1,1,33,2,1,3,45,54,3,4,3,1,1,1.0,0.61,59.77,6.862,0,2.0
1,1,34,2,2,1,13,17,2,4,4,2,1,1.0,0.52,60.29,4.32,0,2.0
1,1,35,2,2,2,18,30,4,5,5,2,1,1.0,0.58,60.87,2.784,0,1.0
1,1,36,2,2,3,21,7,4,2,2,2,1,1.0,0.36,61.23,3.406,0,1.0
1,1,37,2,2,4,27,20,2,5,5,2,1,1.0,0.45,61.68,1.602,0,1.0
1,1,38,2,1,1,30,34,3,4,3,1,1,1.0,0.47,62.15,7.136,0,2.0
1,1,39,2,1,2,20,54,3,2,2,2,1,2.0,0.94,63.09,6.638,1,2.0
1,1,40,2,1,3,38,20,2,5,2,1,1,1.0,0.5,63.59,2.92,0,2.0
1,1,41,2,1,4,29,20,4,5,4,1,1,1.0,0.42,64.01,5.053,0,1.0
1,1,42,2,1,5,23,7,5,3,5,1,1,1.0,0.59,64.6,1.511,0,1.0
1,1,43,2,2,1,21,15,3,2,2,2,1,1.0,0.53,65.13,2.768,0,2.0
1,1,44,2,2,2,50,1,5,3,3,2,1,1.0,0.38,65.51,1.877,0,1.0
1,1,45,2,2,3,18,17,4,5,5,2,1,1.0,0.66,66.17,2.752,0,1.0
1,1,46,2,2,4,28,10,3,2,2,2,1,1.0,0.53,66.7,2.935,0,1.0
1,1,47,2,2,5,45,29,4,3,3,2,1,1.0,0.67,67.37,2.261,0,1.0
1,1,48,2,1,1,24,49,3,5,3,1,1,1.0,0.63,68.0,4.025,0,2.0
1,1,49,2,1,2,25,44,4,5,4,1,1,1.0,0.42,68.42,2.936,0,1.0
1,1,50,2,1,3,22,29,2,3,3,2,1,2.0,0.47,68.89,7.288,1,2.0
1,1,51,2,1,4,35,46,4,3,3,2,1,2.0,0.34,69.23,7.651,1,1.0
1,1,52,2,1,5,52,13,4,3,3,2,1,2.0,0.1,69.33,4.016,1,1.0
1,1,53,2,1,6,21,25,3,5,5,2,1,2.0,0.73,70.06,1.79,1,1.0
1,1,54,2,2,1,34,5,5,2,2,2,1,1.0,0.68,70.74,1.749,0,1.0
1,1,55,2,2,2,37,36,3,4,4,2,1,1.0,0.44,71.18,5.539,0,1.0
1,1,56,2,2,3,54,42,4,3,3,2,1,1.0,0.4,71.58,2.4,0,1.0
1,1,57,2,1,1,36,28,5,2,2,2,1,2.0,0.38,71.96,3.089,1,1.0
1,1,58,2,1,2,40,15,5,3,3,2,1,2.0,0.81,72.77,1.149,1,1.0
1,1,59,2,1,3,53,41,2,4,4,2,1,2.0,0.1,72.87,3.384,1,1.0
1,1,60,2,2,1,6,15,4,2,2,2,1,1.0,0.36,73.23,3.809,0,1.0
1,1,61,2,1,1,15,24,3,4,4,2,1,2.0,0.44,73.67,1.567,1,1.0
1,1,62,2,2,1,18,51,2,5,5,2,1,1.0,0.49,74.16,4.672,0,1.0
1,1,63,2,2,2,32,3,2,4,4,2,1,1.0,0.56,74.72,2.809,0,1.0
1,1,64,2,2,3,28,6,5,4,4,2,1,1.0,0.43,75.15,1.978,0,1.0
1,1,65,2,2,4,22,33,3,4,4,2,1,1.0,0.48,75.63,4.423,0,1.0
1,1,66,2,1,1,49,42,3,4,4,2,1,2.0,0.3,75.93,7.768,1,1.0
1,1,67,2,1,2,39,33,4,5,5,2,1,2.0,0.46,76.39,3.98,1,1.0
1,1,68,2,1,3,43,49,3,2,2,2,1,2.0,1.22,77.61,2.958,1,1.0
1,1,69,2,1,4,9,31,5,3,3,2,1,2.0,0.21,77.82,12.033,1,1.0
1,1,70,2,1,5,18,21,2,4,4,2,1,2.0,0.72,78.54,1.577,1,1.0
1,1,71,2,2,1,15,52,3,5,5,2,1,1.0,0.39,78.93,5.223,0,1.0
1,1,72,2,2,2,10,34,5,4,4,2,1,1.0,0.5,79.43,8.191,0,1.0
1,1,73,2,1,1,39,15,3,2,2,2,1,2.0,0.2,79.63,3.681,1,1.0
1,1,74,2,1,2,41,11,5,3,5,1,1,1.0,0.56,80.19,6.717,0,2.0
1,1,75,2,2,1,17,51,4,3,4,1,1,2.0,0.76,80.95,8.375,1,1.0
1,1,76,2,2,2,20,48,4,2,4,1,1,2.0,0.4,81.35,1.354,1,1.0
1,1,77,2,2,3,24,42,5,4,4,2,1,1.0,0.26,81.61,1.352,0,2.0
1,1,78,2,2,4,38,21,4,2,2,2,1,1.0,0.52,82.13,1.521,0,1.0
1,1,79,2,2,5,53,4,5,4,4,2,1,1.0,0.69,82.82,3.072,0,1.0
1,1,80,2,2,6,25,23,4,2,2,2,1,1.0,0.62,83.44,4.706,0,1.0
1,1,81,2,1,1,12,13,2,3,3,2,1,2.0,0.46,83.9,3.638,1,1.0
1,1,82,2,1,2,16,46,5,3,3,2,1,2.0,0.18,84.08,1.781,1,1.0
1,1,83,2,1,3,53,32,5,4,4,2,1,2.0,0.02,84.1,3.7,1,1.0
1,1,84,2,1,4,52,38,2,3,3,2,1,2.0,0.64,84.74,3.734,1,1.0
1,1,1,3,1,1,29,31,2,3,2,1,1,1.0,0.45,85.19,1.465,0,
1,1,2,3,2,1,17,3,5,4,5,1,1,2.0,0.53,85.72,4.369,1,1.0
1,1,3,3,2,2,23,20,3,5,5,2,1,1.0,0.46,86.18,5.254,0,2.0
1,1,4,3,1,1,39,37,5,2,2,2,1,2.0,0.28,86.46,1.365,1,1.0
1,1,5,3,1,2,2,49,3,4,4,2,1,2.0,0.67,87.13,2.233,1,1.0
1,1,6,3,1,3,41,16,2,5,5,2,1,2.0,0.84,87.97,1.942,1,1.0
1,1,7,3,1,4,1,20,2,4,2,1,1,1.0,0.75,88.72,6.162,0,2.0
1,1,8,3,1,5,21,47,5,3,5,1,1,1.0,0.34,89.06,1.574,0,1.0
1,1,9,3,1,6,16,39,4,3,4,1,1,1.0,0.38,89.44,4.2,0,1.0
1,1,10,3,2,1,34,4,2,5,5,2,1,1.0,0.62,90.06,1.334,0,2.0
1,1,11,3,2,2,19,3,4,2,2,2,1,1.0,0.45,90.51,5.821,0,1.0
1,1,12,3,2,3,13,42,3,4,4,2,1,1.0,0.34,90.85,4.966,0,1.0
1,1,13,3,2,4,31,29,3,2,2,2,1,1.0,0.54,91.39,3.407,0,1.0
1,1,14,3,2,5,5,52,2,3,2,1,1,2.0,1.23,92.62,9.167,1,2.0
1,1,15,3,2,6,46,26,2,3,3,2,1,1.0,0.58,93.2,6.544,0,2.0
1,1,16,3,1,1,40,44,2,4,4,2,1,2.0,1.42,94.62,2.876,1,1.0
1,1,17,3,1,2,10,44,5,2,2,2,1,2.0,0.74,95.36,1.614,1,1.0
1,1,18,3,1,3,18,21,5,3,3,2,1,2.0,1.38,96.74,1.711,1,1.0
1,1,19,3,1,4,3,4,4,3,3,2,1,2.0,0.34,97.08,2.113,1,1.0
1,1,20,3,2,1,35,6,2,3,3,2,1,1.0,0.37,97.45,2.943,0,1.0
1,1,21,3,2,2,41,29,4,2,2,2,1,1.0,0.48,97.93,3.353,0,1.0
1,1,22,3,2,3,42,46,4,2,2,2,1,1.0,0.64,98.57,3.737,0,1.0
1,1,23,3,2,4,44,16,5,2,2,2,1,1.0,0.37,98.94,2.618,0,1.0
1,1,24,3,2,5,17,6,4,3,3,2,1,1.0,0.57,99.51,4.601,0,1.0
1,1,25,3,1,1,3,37,3,2,2,2,1,2.0,0.22,99.73,1.778,1,1.0
1,1,26,3,1,2,24,38,2,5,5,2,1,2.0,0.76,100.49,3.704,1,1.0
1,1,27,3,1,3,50,3,2,3,3,2,1,2.0,0.54,101.03,5.752,1,1.0
1,1,28,3,2,1,23,15,5,4,4,2,1,1.0,0.26,101.29,3.232,0,1.0
1,1,29,3,1,1,15,39,2,5,5,2,1,2.0,0.27,101.56,2.843,1,1.0
1,1,30,3,1,2,1,10,3,5,3,1,1,1.0,0.55,102.11,3.944,0,2.0
1,1,31,3,1,3,33,13,4,3,3,2,1,2.0,0.35,102.46,3.656,1,2.0
1,1,32,3,1,4,45,51,4,5,4,1,1,1.0,0.65,103.11,2.919,0,2.0
1,1,33,3,1,5,43,30,2,4,4,2,1,2.0,0.2,103.31,2.413,1,2.0
1,1,34,3,2,1,2,42,4,3,4,1,1,2.0,1.0,104.31,6.477,1,2.0
1,1,35,3,2,2,5,37,4,3,4,1,1,2.0,0.45,104.76,2.72,1,1.0
1,1,36,3,2,3,26,47,5,3,3,2,1,1.0,0.54,105.3,2.769,0,2.0
1,1,37,3,2,4,19,24,2,4,4,2,1,1.0,0.61,105.91,1.842,0,1.0
1,1,38,3,1,1,34,52,4,2,2,2,1,2.0,0.2,106.11,2.809,1,1.0
1,1,39,3,1,2,38,52,3,2,3,1,1,1.0,0.42,106.53,7.216,0,2.0
1,1,40,3,2,1,10,1,3,4,3,1,1,2.0,0.02,106.55,2.606,1,1.0
1,1,42,3,2,3,52,18,5,3,3,2,1,1.0,0.48,107.03,8.983,0,
1,1,43,3,1,1,42,15,5,2,5,1,1,1.0,0.68,107.71,14.352,0,2.0
1,1,44,3,1,2,33,11,2,5,2,1,1,1.0,0.5,108.21,4.072,0,1.0
1,1,45,3,1,3,39,31,4,2,4,1,1,1.0,0.64,108.85,5.865,0,1.0
1,1,46,3,1,4,41,27,3,5,3,1,1,1.0,0.42,109.27,3.121,0,1.0
1,1,47,3,1,5,32,27,3,2,2,2,1,2.0,0.5,109.77,5.514,1,2.0
1,1,48,3,1,6,3,16,5,4,4,2,1,2.0,0.13,109.9,4.87,1,1.0
1,1,49,3,2,1,19,23,5,2,2,2,1,1.0,0.57,110.47,6.057,0,1.0
1,1,50,3,2,2,6,52,5,4,5,1,1,2.0,0.38,110.85,7.216,1,2.0
1,1,51,3,1,1,50,6,5,3,5,1,1,1.0,0.56,111.41,4.391,0,1.0
1,1,52,3,1,2,25,8,3,2,2,2,1,2.0,0.81,112.22,7.673,1,2.0
1,1,54,3,1,4,29,13,4,5,5,2,1,2.0,0.92,113.6,10.062,1,1.0
1,1,56,3,2,2,49,24,3,5,5,2,1,1.0,0.56,114.93,2.262,0,1.0
1,1,57,3,2,3,30,1,4,5,5,2,1,1.0,0.5,115.43,1.385,0,1.0
1,1,58,3,2,4,5,35,5,4,4,2,1,1.0,0.61,116.04,2.854,0,1.0
1,1,59,3,1,1,28,3,3,4,4,2,1,2.0,0.53,116.57,0.897,1,1.0
1,1,60,3,1,2,15,32,5,4,5,1,1,1.0,0.37,116.94,4.656,0,2.0
1,1,61,3,1,3,43,8,4,5,4,1,1,1.0,0.56,117.5,13.991,0,1.0
1,1,62,3,1,4,52,41,5,4,4,2,1,2.0,0.5,118.0,4.206,1,2.0
1,1,63,3,1,5,1,51,2,4,4,2,1,2.0,0.37,118.37,3.214,1,1.0
1,1,64,3,2,1,9,21,3,2,2,2,1,1.0,0.65,119.02,3.522,0,1.0
1,1,65,3,1,1,32,51,4,2,4,1,1,1.0,0.72,119.74,4.352,0,2.0
1,1,66,3,1,2,52,8,4,5,5,2,1,2.0,0.25,119.99,5.312,1,2.0
1,1,67,3,1,3,31,37,3,5,3,1,1,1.0,0.51,120.5,6.372,0,2.0
1,1,68,3,2,1,14,18,3,5,3,1,1,2.0,0.12,120.62,7.729,1,1.0
1,1,69,3,2,2,44,49,5,2,2,2,1,1.0,0.58,121.2,8.577,0,2.0
1,1,70,3,2,3,36,35,4,3,3,2,1,1.0,0.22,121.42,4.345,0,1.0
1,1,71,3,2,4,19,45,3,4,4,2,1,1.0,0.62,122.04,4.344,0,1.0
1,1,72,3,2,5,40,2,3,2,2,2,1,1.0,0.53,122.57,1.713,0,1.0
1,1,73,3,2,6,15,2,3,4,4,2,1,1.0,0.53,123.1,2.591,0,1.0
1,1,74,3,1,1,10,13,2,5,5,2,1,2.0,1.07,124.17,2.336,1,1.0
1,1,75,3,2,1,33,42,4,5,4,1,1,2.0,0.37,124.54,4.273,1,2.0
1,1,76,3,2,2,6,35,4,2,2,2,1,1.0,0.48,125.02,5.19,0,2.0
1,1,77,3,2,3,45,16,2,4,4,2,1,1.0,0.35,125.37,1.153,0,1.0
1,1,78,3,1,1,16,50,2,3,3,2,1,2.0,0.17,125.54,2.352,1,1.0
1,1,79,3,1,2,33,48,2,4,2,1,1,1.0,0.53,126.07,4.161,0,2.0
1,1,80,3,2,1,36,17,5,3,3,2,1,1.0,0.44,126.51,1.48,0,2.0
1,1,81,3,2,2,8,16,3,4,4,2,1,1.0,0.34,126.85,1.728,0,1.0
1,1,82,3,2,3,20,22,5,2,2,2,1,1.0,0.63,127.48,4.51,0,1.0
1,1,83,3,2,4,33,29,3,5,3,1,1,2.0,0.16,127.64,4.937,1,2.0
1,1,84,3,2,5,41,43,2,5,5,2,1,1.0,0.5,128.14,3.487,0,2.0
2,2,1,1,1,1,1,4,2,5,2,1,1,2.0,0.3,0.3,7.648,0,
2,2,2,1,2,1,46,17,5,4,5,1,1,1.0,0.3,0.6,1.924,1,1.0
2,2,3,1,2,2,28,26,3,4,3,1,1,1.0,0.51,1.11,3.405,1,1.0
2,2,4,1,1,1,41,14,2,4,2,1,1,2.0,0.64,1.75,2.399,0,1.0
2,2,5,1,1,2,11,26,3,2,3,1,1,2.0,1.06,2.81,2.863,0,1.0
2,2,6,1,2,1,35,7,2,4,2,1,1,1.0,0.64,3.45,3.564,1,1.0
2,2,7,1,2,2,50,29,5,4,5,1,1,1.0,0.5,3.95,3.522,1,1.0
2,2,8,1,2,3,12,11,3,4,3,1,1,1.0,0.54,4.49,5.649,1,1.0
2,2,9,1,2,4,40,20,2,4,2,1,1,1.0,0.52,5.01,2.224,1,1.0
2,2,10,1,2,5,18,28,5,2,5,1,1,1.0,0.48,5.49,6.035,1,1.0
2,2,11,1,2,6,45,1,3,2,3,1,1,1.0,0.59,6.08,3.746,1,1.0
2,2,12,1,1,1,14,40,5,3,5,1,1,2.0,0.22,6.3,3.537,0,1.0
2,2,13,1,1,2,47,26,4,3,4,1,1,2.0,1.53,7.83,3.159,0,1.0
2,2,14,1,1,3,43,12,3,2,3,1,1,2.0,0.44,8.27,2.273,0,1.0
2,2,16,1,2,2,32,18,3,5,3,1,1,1.0,0.51,8.78,3.308,1,
2,2,17,1,2,3,32,21,3,2,3,1,1,1.0,0.63,9.41,5.761,1,1.0
2,2,18,1,2,4,4,30,2,4,2,1,1,1.0,0.51,9.92,4.114,1,1.0
2,2,19,1,2,5,26,31,5,3,5,1,1,1.0,0.49,10.41,2.273,1,1.0
2,2,20,1,1,1,18,2,3,5,3,1,1,2.0,0.11,10.52,2.722,0,1.0
2,2,21,1,1,2,22,42,4,3,4,1,1,2.0,0.64,11.16,2.37,0,1.0
2,2,22,1,1,3,40,26,2,3,2,1,1,2.0,0.84,12.0,1.937,0,1.0
2,2,23,1,1,4,30,29,2,3,2,1,1,2.0,1.27,13.27,3.631,0,1.0
2,2,24,1,1,5,19,22,2,3,2,1,1,2.0,0.17,13.44,1.489,0,1.0
2,2,25,1,2,1,10,2,2,5,2,1,1,1.0,0.6,14.04,2.848,1,1.0
2,2,26,1,1,1,36,15,5,4,5,1,1,2.0,1.09,15.13,4.952,0,1.0
2,2,27,1,1,2,46,35,2,4,2,1,1,2.0,0.77,15.9,7.796,0,1.0
2,2,29,1,1,4,39,12,5,2,5,1,1,2.0,0.31,16.21,5.007,0,
2,2,30,1,2,1,19,45,3,5,3,1,1,1.0,0.58,16.79,4.209,1,1.0
2,2,31,1,2,2,25,47,5,4,5,1,1,1.0,0.6,17.39,2.45,1,1.0
2,2,32,1,2,3,31,3,2,5,2,1,1,1.0,0.58,17.97,2.946,1,1.0
2,2,33,1,2,4,43,35,2,5,2,1,1,1.0,0.65,18.62,2.617,1,1.0
2,2,34,1,1,1,5,35,2,3,2,1,1,2.0,0.82,19.44,7.569,0,1.0
2,2,35,1,1,2,38,37,3,2,3,1,1,2.0,1.06,20.5,2.724,0,1.0
2,2,36,1,1,3,18,39,5,2,5,1,1,2.0,0.49,20.99,2.625,0,1.0
2,2,37,1,1,4,37,6,5,4,5,1,1,2.0,0.43,21.42,6.05,0,1.0
2,2,38,1,1,5,33,31,4,3,4,1,1,2.0,0.62,22.04,2.657,0,1.0
2,2,39,1,1,6,38,11,4,2,4,1,1,2.0,0.0,22.04,3.59,0,1.0
2,2,40,1,2,1,32,31,4,5,4,1,1,1.0,0.67,22.71,4.946,1,1.0
2,2,41,1,2,2,49,12,2,5,2,1,1,1.0,0.41,23.12,5.089,1,1.0
2,2,42,1,2,3,34,46,5,3,5,1,1,1.0,0.56,23.68,3.232,1,1.0
2,2,43,1,1,1,37,13,3,4,3,1,1,2.0,0.6,24.28,2.034,0,1.0
2,2,45,1,1,3,28,19,5,2,5,1,1,2.0,0.47,24.82,5.009,0,1.0
2,2,46,1,1,4,8,53,5,4,5,1,1,2.0,0.02,24.84,1.731,0,1.0
2,2,47,1,2,1,7,27,4,3,4,1,1,1.0,0.57,25.41,4.594,1,1.0
2,2,48,1,1,1,34,2,5,2,5,1,1,2.0,0.74,26.15,8.707,0,1.0
2,2,49,1,1,2,6,8,5,2,5,1,1,2.0,1.3,27.45,2.097,0,1.0
2,2,50,1,2,1,18,7,2,3,2,1,1,1.0,0.57,28.02,3.25,1,1.0
2,2,51,1,2,2,22,21,4,2,4,1,1,1.0,0.42,28.44,6.037,1,1.0
2,2,52,1,2,3,42,34,4,2,4,1,1,1.0,0.54,28.98,1.843,1,1.0
2,2,53,1,2,4,31,22,2,5,2,1,1,1.0,0.38,29.36,7.312,1,1.0
2,2,54,1,2,5,7,44,3,5,3,1,1,1.0,0.5,29.86,1.421,1,1.0
2,2,55,1,2,6,36,33,2,3,2,1,1,1.0,0.49,30.35,2.676,1,1.0
2,2,56,1,1,1,16,9,5,3,5,1,1,2.0,0.5,30.85,5.571,0,1.0
2,2,57,1,1,2,13,9,2,3,2,1,1,2.0,0.35,31.2,3.73,0,1.0
2,2,58,1,1,3,45,15,4,3,4,1,1,2.0,1.02,32.22,2.504,0,1.0
2,2,59,1,1,4,30,19,2,4,2,1,1,2.0,0.7,32.92,2.665,0,1.0
2,2,61,1,1,6,51,53,4,5,4,1,1,2.0,0.92,33.84,7.447,0,
2,2,62,1,2,1,11,22,2,4,2,1,1,1.0,0.59,34.43,2.578,1,1.0
2,2,63,1,2,2,17,20,3,5,3,1,1,1.0,0.57,35.0,5.938,1,1.0
2,2,64,1,2,3,5,10,3,5,3,1,1,1.0,0.5,35.5,2.068,1,1.0
2,2,65,1,1,1,39,46,4,5,4,1,1,2.0,0.82,36.32,5.506,0,1.0
2,2,66,1,2,1,54,16,4,5,4,1,1,1.0,0.57,36.89,3.568,1,1.0
2,2,67,1,2,2,36,5,4,5,4,1,1,1.0,0.47,37.36,2.305,1,1.0
2,2,68,1,2,3,44,42,4,2,4,1,1,1.0,0.46,37.82,3.701,1,1.0
2,2,69,1,2,4,42,35,4,5,4,1,1,1.0,0.47,38.29,2.159,1,1.0
2,2,70,1,1,1,50,26,5,3,5,1,1,2.0,0.39,38.68,3.376,0,1.0
2,2,71,1,1,2,7,40,4,5,4,1,1,2.0,0.56,39.24,1.697,0,1.0
2,2,72,1,1,3,32,31,4,2,4,1,1,2.0,0.65,39.89,3.957,0,1.0
2,2,73,1,2,1,22,52,5,2,5,1,1,1.0,0.67,40.56,2.677,1,1.0
2,2,74,1,2,2,6,7,4,3,4,1,1,1.0,0.46,41.02,4.287,1,1.0
2,2,75,1,1,1,20,34,3,4,3,1,1,2.0,0.79,41.81,9.092,0,1.0
2,2,76,1,1,2,20,33,3,2,3,1,1,2.0,0.88,42.69,6.704,0,1.0
2,2,77,1,1,3,52,12,4,2,4,1,1,2.0,0.94,43.63,5.794,0,1.0
2,2,78,1,1,4,53,42,3,5,3,1,1,2.0,0.03,43.66,2.514,0,1.0
2,2,79,1,1,5,15,23,3,4,3,1,1,2.0,0.6,44.26,2.968,0,1.0
2,2,80,1,2,1,46,53,5,3,5,1,1,1.0,0.53,44.79,2.387,1,1.0
2,2,81,1,2,2,9,43,4,3,4,1,1,1.0,0.38,45.17,7.04,1,1.0
2,2,82,1,2,3,10,1,3,4,3,1,1,1.0,0.41,45.58,3.004,1,1.0
2,2,83,1,2,4,10,51,2,5,2,1,1,1.0,0.63,46.21,1.512,1,1.0
2,2,1,2,2,1,36,4,3,5,3,1,1,1.0,0.48,46.69,4.388,1,
2,2,2,2,2,2,46,29,4,3,4,1,1,1.0,0.55,47.24,4.06,1,1.0
2,2,3,2,2,3,5,30,5,4,5,1,1,1.0,0.51,47.75,4.657,1,1.0
2,2,4,2,1,1,24,6,4,2,4,1,1,2.0,0.2,47.95,1.091,0,1.0
2,2,5,2,1,2,49,29,4,5,4,1,1,2.0,0.24,48.19,5.572,0,1.0
2,2,7,2,1,4,30,26,2,4,2,1,1,2.0,0.05,48.95,5.346,0,1.0
2,2,8,2,2,1,48,42,2,4,2,1,1,1.0,0.59,49.54,1.49,1,1.0
2,2,9,2,2,2,9,10,4,5,4,1,1,1.0,0.57,50.11,4.691,1,1.0
2,2,10,2,1,1,40,53,2,5,2,1,1,2.0,0.11,50.22,5.857,0,1.0
2,2,11,2,1,2,1,50,2,5,2,1,1,2.0,0.37,50.59,3.761,0,1.0
2,2,12,2,1,3,27,50,5,3,5,1,1,2.0,0.96,51.55,9.363,0,1.0
2,2,13,2,2,1,4,50,2,5,2,1,1,1.0,0.44,51.99,3.153,1,1.0
2,2,14,2,2,2,14,21,4,5,4,1,1,1.0,0.54,52.53,4.243,1,1.0
2,2,15,2,2,3,37,17,3,5,3,1,1,1.0,0.53,53.06,3.875,1,1.0
2,2,16,2,2,4,53,14,4,3,4,1,1,1.0,0.5,53.56,2.338,1,1.0
2,2,17,2,1,1,49,19,4,2,4,1,1,2.0,0.03,53.59,2.049,0,1.0
2,2,18,2,2,1,22,49,2,4,2,1,1,1.0,0.39,53.98,2.276,1,1.0
2,2,19,2,2,2,10,5,3,2,3,1,1,1.0,0.46,54.44,2.497,1,1.0
2,2,20,2,2,3,39,32,3,2,3,1,1,1.0,0.36,54.8,2.61,1,1.0
2,2,21,2,2,4,36,24,2,3,2,1,1,1.0,0.38,55.18,2.944,1,1.0
2,2,22,2,2,5,8,11,5,2,5,1,1,1.0,0.67,55.85,2.928,1,1.0
2,2,23,2,1,1,27,43,5,4,5,1,1,2.0,0.53,56.38,2.772,0,1.0
2,2,24,2,1,2,19,31,5,3,5,1,1,2.0,0.48,56.86,4.065,0,1.0
2,2,26,2,1,4,29,13,4,5,4,1,1,2.0,0.95,58.19,3.426,0,1.0
2,2,27,2,1,5,42,46,3,2,3,1,1,2.0,0.56,58.75,6.544,0,1.0
2,2,28,2,1,6,51,12,3,2,3,1,1,2.0,0.81,59.56,5.44,0,1.0
2,2,29,2,2,1,45,14,3,5,3,1,1,1.0,0.36,59.92,3.652,1,1.0
2,2,30,2,1,1,8,23,2,4,4,2,1,1.0,0.45,60.37,4.13,1,2.0
2,2,31,2,1,2,11,53,4,5,4,1,1,2.0,0.38,60.75,3.459,0,2.0
2,2,32,2,2,1,37,9,2,5,2,1,1,1.0,0.36,61.11,5.553,1,1.0
2,2,33,2,2,2,28,45,2,4,2,1,1,1.0,0.34,61.45,2.969,1,1.0
2,2,34,2,2,3,36,29,4,3,4,1,1,1.0,0.61,62.06,3.331,1,1.0
2,2,35,2,2,4,17,54,2,3,2,1,1,1.0,0.5,62.56,3.908,1,1.0
2,2,36,2,2,5,16,24,2,5,2,1,1,1.0,0.42,62.98,3.554,1,1.0
2,2,37,2,2,6,32,47,4,2,4,1,1,1.0,0.59,63.57,2.692,1,1.0
2,2,38,2,1,1,10,40,3,5,3,1,1,2.0,0.61,64.18,2.517,0,1.0
2,2,39,2,1,2,11,21,2,3,2,1,1,2.0,0.03,64.21,1.911,0,1.0
2,2,40,2,1,3,19,35,5,2,5,1,1,2.0,1.13,65.34,8.129,0,1.0
2,2,41,2,1,4,40,37,5,2,5,1,1,2.0,0.64,65.98,6.061,0,1.0
2,2,42,2,1,5,43,48,2,5,2,1,1,2.0,1.2,67.18,5.899,0,1.0
2,2,43,2,2,1,54,40,2,5,2,1,1,1.0,0.63,67.81,2.005,1,1.0
2,2,44,2,2,2,10,41,3,4,3,1,1,1.0,0.42,68.23,3.088,1,1.0
2,2,45,2,2,3,29,3,2,3,2,1,1,1.0,0.35,68.58,2.851,1,1.0
2,2,46,2,2,4,40,22,4,2,4,1,1,1.0,0.49,69.07,3.026,1,1.0
2,2,47,2,2,5,40,30,2,4,2,1,1,1.0,0.46,69.53,3.459,1,1.0
2,2,48,2,2,6,25,22,2,3,2,1,1,1.0,0.4,69.93,1.748,1,1.0
2,2,49,2,1,1,23,6,4,3,4,1,1,2.0,0.73,70.66,3.021,0,1.0
2,2,50,2,1,2,20,18,5,4,5,1,1,2.0,1.2,71.86,7.988,0,1.0
2,2,51,2,1,3,8,20,3,2,3,1,1,2.0,0.24,72.1,1.57,0,1.0
2,2,52,2,1,4,29,16,5,4,5,1,1,2.0,0.1,72.2,4.133,0,1.0
2,2,53,2,1,5,50,5,3,4,3,1,1,2.0,0.38,72.58,7.35,0,1.0
2,2,54,2,2,1,21,40,4,3,4,1,1,1.0,0.58,73.16,2.77,1,1.0
2,2,55,2,2,2,33,31,5,2,5,1,1,1.0,0.4,73.56,4.9,1,1.0
2,2,56,2,1,1,9,24,5,4,5,1,1,2.0,0.44,74.0,6.547,0,1.0
2,2,57,2,1,2,9,42,3,2,3,1,1,2.0,0.47,74.47,2.004,0,1.0
2,2,58,2,1,3,47,6,3,4,3,1,1,2.0,0.73,75.2,1.542,0,1.0
2,2,59,2,1,4,25,29,2,4,2,1,1,2.0,0.22,75.42,1.249,0,1.0
2,2,60,2,1,5,24,35,5,4,5,1,1,2.0,0.43,75.85,1.443,0,1.0
2,2,61,2,1,6,54,32,4,5,4,1,1,2.0,0.3,76.15,3.699,0,1.0
2,2,62,2,2,1,30,22,3,2,3,1,1,1.0,0.49,76.64,1.46,1,1.0
2,2,63,2,2,2,43,5,3,4,3,1,1,1.0,0.68,77.32,2.34,1,1.0
2,2,64,2,2,3,24,31,2,3,2,1,1,1.0,0.43,77.75,1.365,1,1.0
2,2,65,2,2,4,29,22,5,3,5,1,1,1.0,0.34,78.09,1.413,1,1.0
2,2,66,2,2,5,24,23,4,3,4,1,1,1.0,0.56,78.65,1.684,1,1.0
2,2,67,2,1,1,13,24,5,2,5,1,1,2.0,0.07,78.72,3.202,0,1.0
2,2,68,2,2,1,39,52,3,4,3,1,1,1.0,0.5,79.22,2.596,1,1.0
2,2,69,2,1,1,28,48,3,5,3,1,1,2.0,0.2,79.42,3.109,0,1.0
2,2,70,2,1,2,15,3,4,2,4,1,1,2.0,0.75,80.17,3.894,0,1.0
2,2,71,2,2,1,9,42,3,5,3,1,1,1.0,0.57,80.74,3.013,1,1.0
2,2,72,2,2,2,13,20,5,3,5,1,1,1.0,0.48,81.22,2.293,1,1.0
2,2,73,2,2,3,13,26,5,2,5,1,1,1.0,0.26,81.48,2.084,1,1.0
2,2,74,2,1,1,24,5,3,4,3,1,1,2.0,0.56,82.04,1.604,0,1.0
2,2,75,2,1,2,39,11,5,3,5,1,1,2.0,1.25,83.29,6.642,0,1.0
2,2,76,2,1,3,22,18,5,4,5,1,1,2.0,0.98,84.27,1.285,0,1.0
2,2,77,2,1,4,48,18,3,5,3,1,1,2.0,0.46,84.73,3.35,0,1.0
2,2,78,2,2,1,10,6,4,2,4,1,1,1.0,0.42,85.15,2.02,1,1.0
2,2,79,2,2,2,26,46,5,2,5,1,1,1.0,0.38,85.53,0.995,1,1.0
2,2,80,2,2,3,3,43,2,3,3,2,1,2.0,0.64,86.17,2.979,0,2.0
2,2,81,2,2,4,29,23,4,2,4,1,1,1.0,0.45,86.62,1.956,1,2.0
2,2,82,2,1,1,4,8,4,5,4,1,1,2.0,0.53,87.15,5.043,0,1.0
2,2,83,2,1,2,47,42,5,3,5,1,1,2.0,0.33,87.48,2.626,0,1.0
2,2,84,2,1,3,39,31,4,3,4,1,1,2.0,0.28,87.76,5.332,0,1.0
2,2,1,3,1,1,10,33,2,4,2,1,1,2.0,0.67,88.43,1.72,0,
2,2,2,3,1,2,14,17,5,3,5,1,1,2.0,0.84,89.27,2.003,0,1.0
2,2,3,3,1,3,11,12,2,3,2,1,1,2.0,1.5,90.77,1.027,0,1.0
2,2,4,3,1,4,41,50,5,3,5,1,1,2.0,0.02,90.79,4.497,0,1.0
2,2,5,3,1,5,53,28,2,5,2,1,1,2.0,0.99,91.78,3.138,0,1.0
2,2,6,3,2,1,19,17,3,5,3,1,1,1.0,0.45,92.23,8.388,1,1.0
2,2,7,3,2,2,21,42,2,4,2,1,1,1.0,0.34,92.57,3.252,1,1.0
2,2,8,3,2,3,50,29,5,2,5,1,1,1.0,0.54,93.11,1.444,1,1.0
2,2,9,3,1,1,29,41,3,2,3,1,1,2.0,1.23,94.34,2.657,0,1.0
2,2,11,3,1,1,29,53,4,3,4,1,1,2.0,0.83,95.17,2.865,0,
2,2,12,3,1,2,19,37,3,4,3,1,1,2.0,1.42,96.59,4.707,0,1.0
2,2,13,3,1,3,3,1,2,5,2,1,1,2.0,0.74,97.33,4.804,0,1.0
2,2,14,3,1,4,4,25,2,3,2,1,1,2.0,1.38,98.71,2.607,0,1.0
2,2,15,3,1,5,51,1,4,2,4,1,1,2.0,0.34,99.05,6.788,0,1.0
2,2,16,3,1,6,21,44,2,4,2,1,1,2.0,0.4,99.45,4.308,0,1.0
2,2,17,3,2,1,7,17,3,2,3,1,1,1.0,0.64,100.09,1.46,1,1.0
2,2,18,3,2,2,25,13,5,4,5,1,1,1.0,0.37,100.46,1.571,1,1.0
2,2,19,3,1,1,29,42,3,2,3,1,1,2.0,0.8,101.26,3.204,0,1.0
2,2,20,3,1,2,2,38,3,5,3,1,1,2.0,0.22,101.48,2.334,0,1.0
2,2,21,3,1,3,35,7,4,5,4,1,1,2.0,0.76,102.24,4.084,0,1.0
2,2,22,3,1,4,1,40,4,2,4,1,1,2.0,0.54,102.78,5.571,0,1.0
2,2,23,3,2,1,36,30,5,2,5,1,1,1.0,0.26,103.04,2.068,1,1.0
2,2,24,3,2,2,46,31,3,2,3,1,1,1.0,0.44,103.48,2.226,1,1.0
2,2,25,3,2,3,45,54,4,3,4,1,1,1.0,0.55,104.03,3.457,1,1.0
2,2,26,3,2,4,17,15,3,5,3,1,1,1.0,0.46,104.49,4.086,1,1.0
2,2,27,3,1,1,44,2,4,2,4,1,1,2.0,1.08,105.57,3.973,0,1.0
2,2,28,3,1,2,34,44,5,3,5,1,1,2.0,0.2,105.77,5.166,0,1.0
2,2,29,3,1,3,49,40,4,3,4,1,1,2.0,1.0,106.77,3.139,0,1.0
2,2,30,3,2,1,50,3,5,2,5,1,1,1.0,0.49,107.26,5.107,1,1.0
2,2,31,3,2,2,51,48,2,5,2,1,1,1.0,0.54,107.8,1.121,1,1.0
2,2,32,3,2,3,17,48,3,2,3,1,1,1.0,0.61,108.41,3.156,1,1.0
2,2,33,3,2,4,11,5,3,2,3,1,1,1.0,0.25,108.66,2.124,1,1.0
2,2,34,3,2,5,49,13,2,3,2,1,1,1.0,0.42,109.08,1.875,1,1.0
2,2,35,3,2,6,2,47,4,3,4,1,1,1.0,0.42,109.5,2.531,1,1.0
2,2,36,3,1,1,14,15,5,2,5,1,1,2.0,0.02,109.52,2.386,0,1.0
2,2,37,3,1,2,15,46,5,2,5,1,1,2.0,0.41,109.93,3.463,0,1.0
2,2,38,3,2,1,24,17,2,5,2,1,1,1.0,0.68,110.61,1.988,1,1.0
2,2,39,3,2,2,12,28,3,5,3,1,1,1.0,0.5,111.11,2.773,1,1.0
2,2,40,3,2,3,15,42,4,2,4,1,1,1.0,0.64,111.75,2.771,1,1.0
2,2,41,3,2,4,47,4,5,3,5,1,1,1.0,0.42,112.17,3.076,1,1.0
2,2,42,3,2,5,51,36,5,3,5,1,1,1.0,0.5,112.67,1.523,1,1.0
2,2,43,3,1,1,15,22,4,5,4,1,1,2.0,0.13,112.8,2.626,0,1.0
2,2,44,3,1,2,32,46,2,3,2,1,1,2.0,0.78,113.58,5.444,0,1.0
2,2,45,3,2,1,45,12,2,4,2,1,1,1.0,0.47,114.05,3.219,1,1.0
2,2,46,3,1,1,33,32,4,5,4,1,1,2.0,0.73,114.78,3.874,0,1.0
2,2,47,3,2,1,51,25,2,4,2,1,1,1.0,0.58,115.36,2.739,1,1.0
2,2,48,3,2,2,36,3,3,4,3,1,1,1.0,0.49,115.85,5.379,1,1.0
2,2,49,3,1,1,2,19,5,4,5,1,1,2.0,0.92,116.77,9.377,0,1.0
2,2,50,3,1,2,34,27,2,4,2,1,1,2.0,1.59,118.36,7.378,0,1.0
2,2,51,3,1,3,53,52,5,4,5,1,1,2.0,0.75,119.11,4.548,0,1.0
2,2,52,3,2,1,5,32,4,5,4,1,1,1.0,0.5,119.61,2.386,1,1.0
2,2,53,3,2,2,13,25,4,3,4,1,1,1.0,0.61,120.22,2.211,1,1.0
2,2,54,3,2,3,10,54,2,3,2,1,1,1.0,0.51,120.73,1.22,1,1.0
2,2,55,3,2,4,41,48,5,2,5,1,1,1.0,0.37,121.1,3.033,1,1.0
2,2,56,3,2,5,13,46,2,4,2,1,1,1.0,0.56,121.66,2.658,1,1.0
2,2,57,3,2,6,14,9,5,3,5,1,1,1.0,0.5,122.16,1.858,1,1.0
2,2,58,3,1,1,11,7,4,2,4,1,1,2.0,0.37,122.53,1.107,0,1.0
2,2,59,3,1,2,9,17,3,4,3,1,1,2.0,1.1,123.63,4.626,0,1.0
2,2,60,3,1,3,32,54,2,5,2,1,1,2.0,1.38,125.01,3.09,0,1.0
2,2,61,3,1,4,49,54,5,4,5,1,1,2.0,0.25,125.26,4.946,0,1.0
2,2,62,3,1,5,43,1,2,3,2,1,1,2.0,0.55,125.81,5.555,0,1.0
2,2,63,3,2,1,17,19,4,5,4,1,1,1.0,0.4,126.21,3.46,1,1.0
2,2,64,3,2,2,32,6,5,2,5,1,1,1.0,0.58,126.79,4.083,1,1.0
2,2,65,3,2,3,14,4,2,3,2,1,1,1.0,0.22,127.01,3.217,1,1.0
2,2,66,3,1,1,10,16,5,4,5,1,1,2.0,0.97,127.98,3.445,0,1.0
2,2,67,3,1,2,29,25,4,3,4,1,1,2.0,0.6,128.58,2.793,0,1.0
2,2,68,3,1,3,36,16,4,3,4,1,1,2.0,0.62,129.2,4.898,0,1.0
2,2,69,3,1,4,12,29,2,5,2,1,1,2.0,1.07,130.27,4.132,0,1.0
2,2,70,3,2,1,41,42,3,2,3,1,1,1.0,0.47,130.74,4.221,1,1.0
2,2,71,3,2,2,21,19,2,5,2,1,1,1.0,0.48,131.22,1.654,1,1.0
2,2,72,3,2,3,17,21,5,3,5,1,1,1.0,0.35,131.57,3.027,1,1.0
2,2,73,3,2,4,42,13,3,4,3,1,1,1.0,0.3,131.87,4.025,1,1.0
2,2,74,3,1,1,26,34,4,2,4,1,1,2.0,0.17,132.04,6.689,0,1.0
2,2,75,3,1,2,9,48,5,4,5,1,1,2.0,0.63,132.67,1.811,0,1.0
2,2,76,3,1,3,39,36,4,2,4,1,1,2.0,0.24,132.91,4.564,0,1.0
2,2,77,3,1,4,54,44,3,4,3,1,1,2.0,1.01,133.92,3.986,0,1.0
2,2,78,3,1,5,10,22,4,5,4,1,1,2.0,0.16,134.08,1.188,0,1.0
2,2,79,3,1,6,31,29,4,5,4,1,1,2.0,0.49,134.57,3.538,0,1.0
2,2,80,3,2,1,4,32,3,5,3,1,1,1.0,0.5,135.07,4.32,1,1.0
2,2,81,3,2,2,34,11,3,5,3,1,1,1.0,0.47,135.54,3.88,1,1.0
2,2,82,3,2,3,53,45,5,4,5,1,1,1.0,0.55,136.09,2.434,1,1.0
2,2,83,3,2,4,16,32,3,4,3,1,1,1.0,0.47,136.56,5.458,1,1.0
2,2,84,3,2,5,36,48,3,5,3,1,1,1.0,0.3,136.86,4.258,1,1.0
3,1,1,1,2,1,25,19,2,4,4,2,1,1.0,0.38,0.38,6.488,0,
3,1,2,1,1,1,10,29,4,3,4,1,1,1.0,0.53,0.91,4.318,0,2.0
3,1,4,1,1,3,29,31,4,3,3,2,1,2.0,0.34,1.6,3.645,1,2.0
3,1,5,1,1,4,49,28,2,4,2,1,1,1.0,0.39,1.99,6.17,0,2.0
3,1,6,1,1,5,38,30,2,5,2,1,1,1.0,0.36,2.35,4.875,0,1.0
3,1,8,1,2,1,53,10,3,4,3,1,1,2.0,0.31,3.04,2.462,1,1.0
3,1,9,1,2,2,49,10,4,5,5,2,1,1.0,0.52,3.56,7.097,0,2.0
3,1,10,1,2,3,41,9,5,4,4,2,1,1.0,0.49,4.05,8.619,0,1.0
3,1,11,1,2,4,13,17,3,2,2,2,1,1.0,0.63,4.68,4.402,0,1.0
3,1,12,1,1,1,47,46,3,2,3,1,1,1.0,0.47,5.15,8.018,0,2.0
3,1,13,1,1,2,18,30,4,5,4,1,1,1.0,0.32,5.47,7.011,0,1.0
3,1,15,1,2,2,14,19,4,5,4,1,1,2.0,0.53,6.5,3.444,1,1.0
3,1,16,1,2,3,2,15,3,4,3,1,1,2.0,0.65,7.15,4.459,1,1.0
3,1,17,1,2,4,40,13,2,5,2,1,1,2.0,0.74,7.89,3.89,1,1.0
3,1,18,1,2,5,7,35,4,3,4,1,1,2.0,1.1,8.99,1.572,1,1.0
3,1,19,1,1,1,23,18,5,2,2,2,1,2.0,0.24,9.23,4.724,1,2.0
3,1,20,1,1,2,54,19,2,3,3,2,1,2.0,0.62,9.85,3.554,1,1.0
3,1,21,1,1,3,10,37,5,3,3,2,1,2.0,0.49,10.34,4.275,1,1.0
3,1,22,1,2,1,19,2,3,4,3,1,1,2.0,0.23,10.57,4.579,1,2.0
3,1,23,1,2,2,17,22,4,3,4,1,1,2.0,1.51,12.08,2.225,1,1.0
3,1,24,1,2,3,18,46,4,5,4,1,1,2.0,0.38,12.46,2.701,1,1.0
3,1,25,1,1,1,4,10,2,3,2,1,1,1.0,0.33,12.79,2.611,0,1.0
3,1,26,1,1,2,30,32,5,4,4,2,1,2.0,1.33,14.12,6.174,1,2.0
3,1,27,1,1,3,41,35,2,3,3,2,1,2.0,0.65,14.77,4.067,1,1.0
3,1,28,1,1,4,8,53,5,3,3,2,1,2.0,0.79,15.56,4.737,1,1.0
3,1,29,1,2,1,8,46,4,3,4,1,1,2.0,1.1,16.66,1.892,1,2.0
3,1,30,1,2,2,37,30,5,3,5,1,1,2.0,0.08,16.74,4.461,1,1.0
3,1,32,1,2,4,48,16,5,2,5,1,1,2.0,0.56,17.3,3.016,1,
3,1,33,1,2,5,24,15,2,4,2,1,1,2.0,0.43,17.73,2.756,1,1.0
3,1,34,1,2,6,29,54,5,2,5,1,1,2.0,1.06,18.79,3.89,1,1.0
3,1,35,1,1,1,46,49,2,3,3,2,1,2.0,0.49,19.28,2.69,1,2.0
3,1,36,1,2,1,22,8,5,3,5,1,1,2.0,0.75,20.03,1.825,1,2.0
3,1,37,1,2,2,48,3,5,2,5,1,1,2.0,0.16,20.19,4.497,1,1.0
3,1,38,1,1,1,12,2,3,4,4,2,1,2.0,0.19,20.38,4.258,1,2.0
3,1,39,1,1,2,54,29,2,4,4,2,1,2.0,0.65,21.03,1.606,1,1.0
3,1,40,1,1,3,18,16,5,3,3,2,1,2.0,0.55,21.58,4.277,1,1.0
3,1,41,1,1,4,5,53,3,5,5,2,1,2.0,1.37,22.95,2.482,1,1.0
3,1,42,1,1,5,21,8,2,3,3,2,1,2.0,0.37,23.32,9.974,1,1.0
3,1,43,1,2,1,1,29,5,4,5,1,1,2.0,1.54,24.86,1.81,1,2.0
3,1,44,1,2,2,49,9,3,4,3,1,1,2.0,1.21,26.07,1.681,1,1.0
3,1,45,1,2,3,20,11,4,2,4,1,1,2.0,0.23,26.3,2.387,1,1.0
3,1,46,1,2,4,30,44,3,2,3,1,1,2.0,0.41,26.71,2.594,1,1.0
3,1,47,1,1,1,18,28,2,5,5,2,1,2.0,0.5,27.21,5.281,1,2.0
3,1,48,1,1,2,8,28,3,2,2,2,1,2.0,0.89,28.1,3.473,1,1.0
3,1,49,1,1,3,49,18,5,4,4,2,1,2.0,0.16,28.26,8.068,1,1.0
3,1,50,1,1,4,33,20,4,5,5,2,1,2.0,0.16,28.42,3.81,1,1.0
3,1,51,1,1,5,5,25,3,2,2,2,1,2.0,0.41,28.83,3.107,1,1.0
3,1,52,1,2,1,33,52,4,2,4,1,1,2.0,0.49,29.32,2.785,1,2.0
3,1,53,1,2,2,36,37,3,5,3,1,1,2.0,0.63,29.95,5.236,1,1.0
3,1,54,1,2,3,7,35,5,2,5,1,1,2.0,1.0,30.95,3.921,1,1.0
3,1,55,1,2,4,7,26,4,3,4,1,1,2.0,0.79,31.74,2.317,1,1.0
3,1,56,1,2,5,9,36,3,4,3,1,1,2.0,0.83,32.57,2.66,1,1.0
3,1,57,1,1,1,18,1,5,2,5,1,1,1.0,0.6,33.17,7.73,0,1.0
3,1,58,1,1,2,45,20,2,5,5,2,1,2.0,0.8,33.97,3.393,1,2.0
3,1,59,1,1,3,3,46,3,2,2,2,1,2.0,1.12,35.09,2.966,1,1.0
3,1,60,1,1,4,54,3,5,2,2,2,1,2.0,0.65,35.74,3.955,1,1.0
3,1,61,1,2,1,15,40,3,2,3,1,1,2.0,0.18,35.92,5.97,1,2.0
3,1,62,1,2,2,15,12,2,4,2,1,1,2.0,0.43,36.35,2.75,1,1.0
3,1,63,1,2,3,27,7,2,4,2,1,1,2.0,0.72,37.07,1.669,1,1.0
3,1,64,1,2,4,31,8,5,4,5,1,1,2.0,0.56,37.63,6.91,1,1.0
3,1,65,1,2,5,46,15,3,4,3,1,1,2.0,0.22,37.85,3.476,1,1.0
3,1,66,1,2,6,10,30,4,2,4,1,1,2.0,0.19,38.04,4.819,1,1.0
3,1,67,1,1,1,18,26,2,5,5,2,1,2.0,0.48,38.52,1.714,1,2.0
3,1,68,1,1,2,6,18,4,3,3,2,1,2.0,0.68,39.2,2.961,1,1.0
3,1,69,1,1,3,33,11,2,5,5,2,1,2.0,0.34,39.54,1.219,1,1.0
3,1,70,1,2,1,47,11,4,2,4,1,1,2.0,0.26,39.8,3.405,1,2.0
3,1,71,1,2,2,39,42,2,3,2,1,1,2.0,0.48,40.28,7.474,1,1.0
3,1,72,1,2,3,49,20,5,4,5,1,1,2.0,0.42,40.7,1.603,1,1.0
3,1,73,1,1,1,17,22,5,4,4,2,1,2.0,0.05,40.75,3.14,1,2.0
3,1,75,1,2,1,36,23,2,3,2,1,1,2.0,1.11,41.86,3.988,1,
3,1,76,1,1,1,33,21,5,3,3,2,1,2.0,0.71,42.57,3.971,1,2.0
3,1,77,1,2,1,38,48,4,2,4,1,1,2.0,1.1,43.67,3.971,1,2.0
3,1,78,1,2,2,44,7,3,5,3,1,1,2.0,0.27,43.94,5.475,1,1.0
3,1,79,1,1,1,48,23,2,5,5,2,1,2.0,0.88,44.82,3.602,1,2.0
3,1,80,1,1,2,19,26,2,4,4,2,1,2.0,0.52,45.34,8.794,1,1.0
3,1,81,1,1,3,26,45,3,5,5,2,1,2.0,0.14,45.48,3.445,1,1.0
3,1,82,1,1,4,7,47,4,2,2,2,1,2.0,0.46,45.94,1.937,1,1.0
3,1,83,1,1,5,40,52,4,2,2,2,1,2.0,1.01,46.95,3.649,1,1.0
3,1,84,1,1,6,52,30,4,5,5,2,1,2.0,0.04,46.99,1.618,1,1.0
3,1,1,2,1,1,46,33,5,4,4,2,1,2.0,0.18,47.17,10.548,1,
3,1,2,2,2,1,46,20,5,2,5,1,1,2.0,1.13,48.3,2.736,1,2.0
3,1,3,2,2,2,16,37,3,4,3,1,1,2.0,0.07,48.37,3.906,1,1.0
3,1,4,2,1,1,29,34,5,4,4,2,1,2.0,0.31,48.68,3.445,1,2.0
3,1,5,2,1,2,46,45,2,5,5,2,1,2.0,0.26,48.94,5.6,1,1.0
3,1,6,2,2,1,50,14,2,3,2,1,1,2.0,1.26,50.2,2.642,1,2.0
3,1,7,2,2,2,26,11,5,4,5,1,1,2.0,0.54,50.74,4.866,1,1.0
3,1,8,2,2,3,30,41,2,3,2,1,1,2.0,1.32,52.06,3.954,1,1.0
3,1,9,2,2,4,51,5,3,4,3,1,1,2.0,1.41,53.47,2.202,1,1.0
3,1,10,2,1,1,45,32,4,2,2,2,1,2.0,1.27,54.74,2.226,1,2.0
3,1,11,2,1,2,8,19,5,4,4,2,1,2.0,0.4,55.14,4.242,1,1.0
3,1,12,2,1,3,53,50,4,5,5,2,1,2.0,0.41,55.55,7.602,1,1.0
3,1,13,2,1,4,20,14,3,2,2,2,1,2.0,0.64,56.19,3.651,1,1.0
3,1,14,2,1,5,7,34,3,2,2,2,1,2.0,0.23,56.42,3.009,1,1.0
3,1,15,2,1,6,21,2,3,5,5,2,1,2.0,0.04,56.46,2.242,1,1.0
3,1,16,2,2,1,52,19,5,3,5,1,1,2.0,0.29,56.75,8.313,1,2.0
3,1,17,2,2,2,9,24,3,4,3,1,1,2.0,1.01,57.76,2.258,1,1.0
3,1,18,2,2,3,46,25,4,5,4,1,1,2.0,1.62,59.38,4.803,1,1.0
3,1,19,2,1,1,4,50,2,4,4,2,1,2.0,0.61,59.99,3.043,1,2.0
3,1,20,2,1,2,41,31,5,3,3,2,1,2.0,0.37,60.36,2.932,1,1.0
3,1,21,2,1,3,32,47,4,5,5,2,1,2.0,0.83,61.19,8.402,1,1.0
3,1,22,2,1,4,52,33,4,3,3,2,1,2.0,0.27,61.46,7.587,1,1.0
3,1,23,2,1,5,10,35,4,2,2,2,1,2.0,1.38,62.84,3.377,1,1.0
3,1,24,2,2,1,49,15,4,5,5,2,1,1.0,0.63,63.47,7.428,0,1.0
3,1,25,2,2,2,53,12,3,2,3,1,1,2.0,0.18,63.65,1.747,1,2.0
3,1,26,2,2,3,15,40,3,5,3,1,1,2.0,1.13,64.78,3.584,1,1.0
3,1,27,2,2,4,50,46,5,3,5,1,1,2.0,0.68,65.46,1.522,1,1.0
3,1,28,2,2,5,43,39,4,5,4,1,1,2.0,0.69,66.15,5.059,1,1.0
3,1,29,2,1,1,48,2,3,5,5,2,1,2.0,0.61,66.76,4.692,1,2.0
3,1,30,2,1,2,48,29,4,3,3,2,1,2.0,0.82,67.58,2.785,1,1.0
3,1,31,2,1,3,36,32,4,5,5,2,1,2.0,0.2,67.78,2.788,1,1.0
3,1,32,2,2,1,23,4,5,3,3,2,1,1.0,0.38,68.16,9.025,0,1.0
3,1,33,2,1,1,17,31,3,5,5,2,1,2.0,0.41,68.57,4.002,1,1.0
3,1,34,2,1,2,8,41,2,4,4,2,1,2.0,0.0,68.57,4.335,1,1.0
3,1,35,2,1,3,16,31,2,4,4,2,1,2.0,0.47,69.04,4.002,1,1.0
3,1,36,2,1,4,15,37,2,4,4,2,1,2.0,0.63,69.67,4.658,1,1.0
3,1,37,2,2,1,36,41,4,3,4,1,1,2.0,1.15,70.82,2.932,1,2.0
3,1,38,2,2,2,48,40,2,5,2,1,1,2.0,0.58,71.4,1.922,1,1.0
3,1,39,2,2,3,20,39,5,3,5,1,1,2.0,0.24,71.64,4.558,1,1.0
3,1,40,2,2,4,22,14,3,4,3,1,1,2.0,1.27,72.91,2.864,1,1.0
3,1,41,2,2,5,25,20,5,3,5,1,1,2.0,0.89,73.8,2.757,1,1.0
3,1,42,2,2,6,32,33,3,2,3,1,1,2.0,0.61,74.41,4.906,1,1.0
3,1,43,2,1,1,51,27,4,2,4,1,1,1.0,0.58,74.99,1.776,0,1.0
3,1,44,2,1,2,42,53,4,2,4,1,1,1.0,0.44,75.43,5.769,0,1.0
3,1,45,2,1,3,41,26,2,3,3,2,1,2.0,0.9,76.33,6.016,1,2.0
3,1,46,2,1,4,10,5,3,4,4,2,1,2.0,0.63,76.96,3.141,1,1.0
3,1,47,2,2,1,35,28,5,4,5,1,1,2.0,0.79,77.75,4.273,1,2.0
3,1,48,2,2,2,31,15,3,4,3,1,1,2.0,0.01,77.76,5.536,1,1.0
3,1,49,2,2,3,12,1,5,4,5,1,1,2.0,1.22,78.98,1.603,1,1.0
3,1,50,2,2,4,33,47,4,5,4,1,1,2.0,0.7,79.68,2.946,1,1.0
3,1,52,2,1,1,24,23,2,3,3,2,1,2.0,0.72,80.4,2.816,1,
3,1,53,2,1,2,48,5,2,3,3,2,1,2.0,1.1,81.5,3.571,1,1.0
3,1,54,2,1,3,5,33,3,2,2,2,1,2.0,0.8,82.3,4.338,1,1.0
3,1,55,2,1,4,26,13,3,2,2,2,1,2.0,1.15,83.45,1.954,1,1.0
3,1,56,2,1,5,18,23,5,2,2,2,1,2.0,1.12,84.57,3.586,1,1.0
3,1,57,2,2,1,11,46,4,3,3,2,1,1.0,0.39,84.96,2.672,0,1.0
3,1,58,2,1,1,22,9,2,5,5,2,1,2.0,1.34,86.3,2.593,1,1.0
3,1,59,2,1,2,31,34,5,2,2,2,1,2.0,0.68,86.98,2.709,1,1.0
3,1,60,2,2,1,40,2,3,2,2,2,1,1.0,0.5,87.48,1.508,0,1.0
3,1,61,2,2,2,41,37,5,3,5,1,1,2.0,0.31,87.79,3.314,1,2.0
3,1,62,2,2,3,19,21,2,5,2,1,1,2.0,0.6,88.39,4.161,1,1.0
3,1,63,2,2,4,44,5,5,2,5,1,1,2.0,0.1,88.49,3.285,1,1.0
3,1,64,2,1,1,37,8,5,4,5,1,1,1.0,0.48,88.97,3.763,0,1.0
3,1,65,2,1,2,23,10,2,5,2,1,1,1.0,0.59,89.56,2.448,0,1.0
3,1,66,2,1,3,34,3,5,2,5,1,1,1.0,0.54,90.1,2.658,0,1.0
3,1,67,2,1,4,20,1,3,5,5,2,1,2.0,1.2,91.3,3.025,1,2.0
3,1,68,2,1,5,46,39,2,3,3,2,1,2.0,0.52,91.82,3.552,1,1.0
3,1,69,2,1,6,11,13,2,4,4,2,1,2.0,1.38,93.2,2.689,1,1.0
3,1,70,2,2,1,34,9,4,2,4,1,1,2.0,0.13,93.33,5.764,1,2.0
3,1,71,2,2,2,29,52,4,3,4,1,1,2.0,0.14,93.47,8.065,1,1.0
3,1,72,2,1,1,26,12,2,4,4,2,1,2.0,0.45,93.92,1.748,1,2.0
3,1,73,2,2,1,39,23,2,4,2,1,1,2.0,0.04,93.96,4.569,1,2.0
3,1,74,2,2,2,6,12,4,2,4,1,1,2.0,0.05,94.01,4.883,1,1.0
3,1,75,2,2,3,40,31,4,3,4,1,1,2.0,0.1,94.11,4.732,1,1.0
3,1,76,2,1,1,44,9,5,2,2,2,1,2.0,0.62,94.73,4.98,1,2.0
3,1,77,2,1,2,54,51,2,5,5,2,1,2.0,0.41,95.14,2.801,1,1.0
3,1,78,2,1,3,8,11,3,5,5,2,1,2.0,0.42,95.56,0.945,1,1.0
3,1,79,2,2,1,29,17,2,5,2,1,1,2.0,0.44,96.0,2.211,1,2.0
3,1,80,2,2,2,30,10,5,2,2,2,1,1.0,0.52,96.52,1.442,0,2.0
3,1,81,2,2,3,46,7,4,3,4,1,1,2.0,0.26,96.78,3.138,1,2.0
3,1,82,2,2,4,1,34,2,3,2,1,1,2.0,0.17,96.95,2.147,1,1.0
3,1,83,2,2,5,43,44,3,4,3,1,1,2.0,0.74,97.69,6.528,1,1.0
3,1,84,2,2,6,6,52,4,2,4,1,1,2.0,0.3,97.99,9.905,1,1.0
3,1,1,3,2,1,20,7,5,4,5,1,1,2.0,0.61,98.6,4.153,1,
3,1,2,3,2,2,3,5,2,4,2,1,1,2.0,0.05,98.65,1.969,1,1.0
3,1,3,3,2,3,5,24,2,3,2,1,1,2.0,0.43,99.08,5.717,1,1.0
3,1,4,3,2,4,54,38,3,5,3,1,1,2.0,0.85,99.93,5.203,1,1.0
3,1,5,3,2,5,24,45,4,5,4,1,1,2.0,0.08,100.01,4.16,1,1.0
3,1,6,3,2,6,20,17,5,4,5,1,1,2.0,0.57,100.58,3.135,1,1.0
3,1,7,3,1,1,45,47,3,2,3,1,1,1.0,0.47,101.05,2.849,0,1.0
3,1,8,3,1,2,36,21,3,4,3,1,1,1.0,0.49,101.54,4.114,0,1.0
3,1,9,3,1,3,10,14,3,2,2,2,1,2.0,0.33,101.87,2.911,1,2.0
3,1,10,3,1,4,18,30,4,3,3,2,1,2.0,0.43,102.3,2.642,1,1.0
3,1,11,3,2,1,4,18,4,3,4,1,1,2.0,1.16,103.46,4.307,1,2.0
3,1,12,3,1,1,43,27,3,2,2,2,1,2.0,0.81,104.27,2.597,1,2.0
3,1,13,3,1,2,47,42,3,4,4,2,1,2.0,0.32,104.59,5.09,1,1.0
3,1,14,3,1,3,4,10,5,2,2,2,1,2.0,0.19,104.78,1.57,1,1.0
3,1,15,3,2,1,50,46,4,2,4,1,1,2.0,0.62,105.4,3.811,1,2.0
3,1,16,3,2,2,51,5,2,5,2,1,1,2.0,0.32,105.72,2.548,1,1.0
3,1,17,3,2,3,10,26,5,2,5,1,1,2.0,0.25,105.97,1.474,1,1.0
3,1,18,3,2,4,9,27,2,4,2,1,1,2.0,0.53,106.5,3.667,1,1.0
3,1,19,3,1,1,24,37,2,3,3,2,1,2.0,1.09,107.59,3.655,1,2.0
3,1,20,3,2,1,45,53,4,5,4,1,1,2.0,0.78,108.37,4.611,1,2.0
3,1,22,3,2,3,28,19,4,2,4,1,1,2.0,0.02,108.39,3.458,1,
3,1,23,3,2,4,18,14,3,4,3,1,1,2.0,0.95,109.34,2.782,1,1.0
3,1,24,3,2,5,14,16,2,3,2,1,1,2.0,0.39,109.73,8.02,1,1.0
3,1,25,3,1,1,27,10,2,4,4,2,1,2.0,0.53,110.26,3.043,1,2.0
3,1,26,3,1,2,47,49,4,2,2,2,1,2.0,0.3,110.56,10.098,1,1.0
3,1,27,3,1,3,10,43,2,4,4,2,1,2.0,0.4,110.96,3.539,1,1.0
3,1,28,3,1,4,51,14,5,3,3,2,1,2.0,0.12,111.08,3.345,1,1.0
3,1,29,3,1,5,10,49,5,2,2,2,1,2.0,0.67,111.75,1.699,1,1.0
3,1,30,3,2,1,20,34,3,4,3,1,1,2.0,0.22,111.97,3.252,1,2.0
3,1,31,3,2,2,30,50,2,5,2,1,1,2.0,1.22,113.19,1.578,1,1.0
3,1,32,3,2,3,54,33,2,4,2,1,1,2.0,0.57,113.76,1.444,1,1.0
3,1,33,3,1,1,8,24,3,4,4,2,1,2.0,0.29,114.05,5.508,1,2.0
3,1,34,3,1,2,45,20,5,3,3,2,1,2.0,0.19,114.24,3.218,1,1.0
3,1,35,3,2,1,10,20,5,4,5,1,1,2.0,0.55,114.79,2.227,1,2.0
3,1,36,3,2,2,37,26,3,4,3,1,1,2.0,0.4,115.19,2.93,1,1.0
3,1,37,3,1,1,9,18,3,5,5,2,1,2.0,0.37,115.56,3.636,1,2.0
3,1,38,3,1,2,31,11,2,5,5,2,1,2.0,0.15,115.71,1.983,1,1.0
3,1,39,3,1,3,26,19,4,3,3,2,1,2.0,0.47,116.18,3.557,1,1.0
3,1,40,3,1,4,18,12,5,3,3,2,1,2.0,0.79,116.97,3.023,1,1.0
3,1,41,3,1,5,26,33,5,2,2,2,1,2.0,0.19,117.16,6.45,1,1.0
3,1,42,3,1,6,30,40,5,4,4,2,1,2.0,0.43,117.59,2.936,1,1.0
3,1,43,3,2,1,54,26,3,2,3,1,1,2.0,0.62,118.21,5.762,1,2.0
3,1,44,3,2,2,12,46,3,4,3,1,1,2.0,0.46,118.67,1.893,1,1.0
3,1,45,3,2,3,19,29,3,2,3,1,1,2.0,1.32,119.99,3.14,1,1.0
3,1,46,3,2,4,16,41,3,5,3,1,1,2.0,1.26,121.25,2.948,1,1.0
3,1,47,3,1,1,37,22,4,5,5,2,1,2.0,0.8,122.05,3.795,1,2.0
3,1,48,3,1,2,6,53,4,5,5,2,1,2.0,0.54,122.59,1.748,1,1.0
3,1,49,3,1,3,34,31,4,5,5,2,1,2.0,0.12,122.71,5.555,1,1.0
3,1,50,3,2,1,29,35,2,3,3,2,1,1.0,0.45,123.16,2.85,0,1.0
3,1,51,3,1,1,47,52,4,2,2,2,1,2.0,0.32,123.48,2.024,1,1.0
3,1,52,3,1,2,41,2,2,3,3,2,1,2.0,0.28,123.76,1.812,1,1.0
3,1,54,3,2,2,6,20,2,3,2,1,1,2.0,1.33,125.09,3.358,1,
3,1,55,3,1,1,36,38,5,3,5,1,1,1.0,0.59,125.68,4.945,0,1.0
3,1,56,3,1,2,51,22,4,5,4,1,1,1.0,0.51,126.19,4.321,0,1.0
3,1,57,3,1,3,9,41,3,5,5,2,1,2.0,0.36,126.55,3.187,1,2.0
3,1,58,3,1,4,27,33,5,3,3,2,1,2.0,0.54,127.09,3.186,1,1.0
3,1,59,3,2,1,41,48,4,2,4,1,1,2.0,0.86,127.95,5.266,1,2.0
3,1,60,3,2,2,51,48,2,5,2,1,1,2.0,1.55,129.5,4.6,1,1.0
3,1,61,3,2,3,29,38,3,5,3,1,1,2.0,0.65,130.15,1.811,1,1.0
3,1,62,3,1,1,1,4,5,3,5,1,1,1.0,0.6,130.75,1.793,0,1.0
3,1,63,3,2,1,18,20,2,3,2,1,1,2.0,0.82,131.57,3.092,1,1.0
3,1,64,3,2,2,35,47,3,2,3,1,1,2.0,0.76,132.33,1.748,1,1.0
3,1,65,3,2,3,44,7,5,3,5,1,1,2.0,0.97,133.3,3.124,1,1.0
3,1,66,3,2,4,7,25,4,2,4,1,1,2.0,1.09,134.39,3.782,1,1.0
3,1,67,3,2,5,30,28,2,4,2,1,1,2.0,0.52,134.91,1.683,1,1.0
3,1,68,3,2,6,13,9,2,5,2,1,1,2.0,0.35,135.26,1.861,1,1.0
3,1,69,3,1,1,50,46,2,5,2,1,1,1.0,0.53,135.79,2.981,0,1.0
3,1,70,3,1,2,3,42,4,3,3,2,1,2.0,0.97,136.76,5.906,1,2.0
3,1,71,3,1,3,17,25,4,3,3,2,1,2.0,1.07,137.83,3.3,1,1.0
3,1,73,3,1,5,45,20,2,4,4,2,1,2.0,0.24,138.07,2.899,1,
3,1,74,3,1,6,16,47,4,3,3,2,1,2.0,0.93,139.0,2.737,1,1.0
3,1,75,3,2,1,28,8,3,5,3,1,1,2.0,0.42,139.42,2.213,1,2.0
3,1,76,3,2,2,6,10,5,2,2,2,1,1.0,0.46,139.88,1.38,0,2.0
3,1,77,3,2,3,50,43,4,5,5,2,1,1.0,0.56,140.44,4.42,0,1.0
3,1,78,3,2,4,45,6,5,4,5,1,1,2.0,0.94,141.38,4.387,1,2.0
3,1,79,3,2,5,48,23,5,4,5,1,1,2.0,0.23,141.61,1.443,1,1.0
3,1,80,3,1,1,4,16,4,3,3,2,1,2.0,0.48,142.09,8.103,1,2.0
3,1,81,3,1,2,36,49,3,2,2,2,1,2.0,0.76,142.85,4.21,1,1.0
3,1,82,3,1,3,22,31,5,2,2,2,1,2.0,0.54,143.39,2.741,1,1.0
3,1,83,3,1,4,30,51,2,5,5,2,1,2.0,1.24,144.63,1.766,1,1.0
3,1,84,3,1,5,52,26,5,4,4,2,1,2.0,0.34,144.97,2.677,1,1.0
4,1,1,1,2,1,9,33,3,2,3,1,1,2.0,0.3,0.3,2.769,1,
4,1,2,1,2,2,1,15,5,2,5,1,1,2.0,0.56,0.86,3.643,1,1.0
4,1,3,1,1,1,31,22,3,2,2,2,1,2.0,0.64,1.5,2.598,1,2.0
4,1,4,1,1,2,12,44,3,2,2,2,1,2.0,1.06,2.56,2.63,1,1.0
4,1,5,1,2,1,54,5,3,5,3,1,1,2.0,1.06,3.62,4.491,1,2.0
4,1,6,1,2,2,39,35,4,3,4,1,1,2.0,0.48,4.1,3.495,1,1.0
4,1,7,1,2,3,53,51,5,3,5,1,1,2.0,0.65,4.75,5.129,1,1.0
4,1,8,1,1,1,45,15,4,5,5,2,1,2.0,0.58,5.33,2.104,1,2.0
4,1,9,1,1,2,12,9,4,5,5,2,1,2.0,0.41,5.74,4.418,1,1.0
4,1,10,1,1,3,39,26,3,4,4,2,1,2.0,0.84,6.58,2.097,1,1.0
4,1,11,1,1,4,13,9,2,4,4,2,1,2.0,0.22,6.8,4.248,1,1.0
4,1,12,1,1,5,4,13,2,3,3,2,1,2.0,1.53,8.33,1.761,1,1.0
4,1,13,1,2,1,43,22,4,2,4,1,1,2.0,0.44,8.77,4.429,1,2.0
4,1,14,1,2,2,1,9,2,4,2,1,1,2.0,0.55,9.32,1.849,1,1.0
4,1,15,1,2,3,47,30,2,3,2,1,1,2.0,1.0,10.32,1.566,1,1.0
4,1,16,1,2,4,37,6,3,4,3,1,1,2.0,0.53,10.85,3.756,1,1.0
4,1,17,1,2,5,36,23,3,5,3,1,1,2.0,0.45,11.3,2.264,1,1.0
4,1,18,1,1,1,37,43,4,5,5,2,1,2.0,0.11,11.41,5.33,1,2.0
4,1,19,1,1,2,21,30,2,3,3,2,1,2.0,0.64,12.05,3.572,1,1.0
4,1,20,1,1,3,8,22,2,5,5,2,1,2.0,0.84,12.89,2.304,1,1.0
4,1,21,1,2,1,5,45,2,4,2,1,1,2.0,1.27,14.16,3.735,1,2.0
4,1,22,1,2,2,38,45,5,3,5,1,1,2.0,0.17,14.33,3.109,1,1.0
4,1,23,1,2,3,29,28,3,5,3,1,1,2.0,0.9,15.23,1.319,1,1.0
4,1,24,1,2,4,52,43,3,4,3,1,1,2.0,1.09,16.32,3.624,1,1.0
4,1,25,1,1,1,20,23,3,2,2,2,1,2.0,0.77,17.09,2.633,1,2.0
4,1,26,1,1,2,8,35,3,5,5,2,1,2.0,0.31,17.4,2.201,1,1.0
4,1,27,1,1,3,52,11,5,2,2,2,1,2.0,0.83,18.23,3.48,1,1.0
4,1,28,1,1,4,45,8,2,5,5,2,1,2.0,0.88,19.11,1.305,1,1.0
4,1,29,1,2,1,17,32,5,2,5,1,1,2.0,0.84,19.95,2.785,1,2.0
4,1,30,1,1,1,39,29,2,3,3,2,1,2.0,1.11,21.06,3.213,1,2.0
4,1,31,1,2,1,31,8,4,2,4,1,1,2.0,0.82,21.88,2.673,1,2.0
4,1,32,1,2,2,11,8,5,3,5,1,1,2.0,1.06,22.94,3.025,1,1.0
4,1,33,1,2,3,25,3,4,3,4,1,1,2.0,0.49,23.43,3.857,1,1.0
4,1,34,1,2,4,8,50,5,4,5,1,1,2.0,0.43,23.86,2.287,1,1.0
4,1,35,1,2,5,29,54,2,4,2,1,1,2.0,0.62,24.48,3.089,1,1.0
4,1,36,1,2,6,27,7,3,2,3,1,1,2.0,0.0,24.48,3.138,1,1.0
4,1,37,1,1,1,33,32,4,3,3,2,1,2.0,1.17,25.65,1.994,1,2.0
4,1,38,1,1,2,16,6,2,5,5,2,1,2.0,0.12,25.77,1.487,1,1.0
4,1,39,1,1,3,54,15,2,4,4,2,1,2.0,0.75,26.52,2.114,1,1.0
4,1,40,1,1,4,16,50,3,5,5,2,1,2.0,0.6,27.12,1.137,1,1.0
4,1,41,1,1,5,18,49,4,5,5,2,1,2.0,0.07,27.19,4.329,1,1.0
4,1,42,1,1,6,30,40,2,4,4,2,1,2.0,0.47,27.66,3.167,1,1.0
4,1,43,1,2,1,13,38,3,2,3,1,1,2.0,0.02,27.68,2.272,1,2.0
4,1,44,1,1,1,2,17,5,2,2,2,1,2.0,0.79,28.47,4.153,1,2.0
4,1,45,1,1,2,36,8,4,2,2,2,1,2.0,0.74,29.21,3.207,1,1.0
4,1,46,1,1,3,41,47,4,3,3,2,1,2.0,1.3,30.51,3.344,1,1.0
4,1,47,1,1,4,27,15,3,4,4,2,1,2.0,0.78,31.29,1.734,1,1.0
4,1,48,1,1,5,34,21,5,2,2,2,1,2.0,0.2,31.49,3.709,1,1.0
4,1,49,1,1,6,41,5,2,5,5,2,1,2.0,0.68,32.17,5.764,1,1.0
4,1,50,1,2,1,51,37,5,4,5,1,1,2.0,0.02,32.19,3.425,1,2.0
4,1,51,1,2,2,17,13,5,2,5,1,1,2.0,0.49,32.68,4.013,1,1.0
4,1,52,1,1,1,45,12,4,3,3,2,1,2.0,0.48,33.16,2.728,1,2.0
4,1,53,1,2,1,50,3,4,2,4,1,1,2.0,0.5,33.66,4.376,1,2.0
4,1,54,1,2,2,14,15,5,4,5,1,1,2.0,0.35,34.01,2.617,1,1.0
4,1,55,1,2,3,51,46,5,3,5,1,1,2.0,1.02,35.03,3.63,1,1.0
4,1,56,1,2,4,30,35,4,2,4,1,1,2.0,0.7,35.73,4.513,1,1.0
4,1,57,1,1,1,4,10,4,3,3,2,1,2.0,0.92,36.65,5.977,1,2.0
4,1,58,1,1,2,54,1,3,4,4,2,1,2.0,0.84,37.49,3.665,1,1.0
4,1,59,1,1,3,17,27,2,5,5,2,1,2.0,0.77,38.26,3.641,1,1.0
4,1,60,1,1,4,25,51,2,3,3,2,1,2.0,0.52,38.78,3.697,1,1.0
4,1,61,1,2,1,7,42,3,5,3,1,1,2.0,0.82,39.6,2.193,1,2.0
4,1,62,1,2,2,19,49,4,5,4,1,1,2.0,0.77,40.37,2.84,1,1.0
4,1,63,1,2,3,13,54,5,3,5,1,1,2.0,0.38,40.75,2.162,1,1.0
4,1,64,1,2,4,37,51,3,4,3,1,1,2.0,0.32,41.07,2.778,1,1.0
4,1,65,1,2,5,29,43,5,4,5,1,1,2.0,0.36,41.43,3.95,1,1.0
4,1,66,1,2,6,52,27,5,2,5,1,1,2.0,0.39,41.82,3.048,1,1.0
4,1,67,1,1,1,44,47,5,4,4,2,1,2.0,0.56,42.38,3.097,1,2.0
4,1,68,1,1,2,9,3,3,4,4,2,1,2.0,0.65,43.03,2.311,1,1.0
4,1,69,1,2,1,29,19,4,3,4,1,1,2.0,1.18,44.21,1.554,1,2.0
4,1,70,1,2,2,19,42,4,5,4,1,1,2.0,0.33,44.54,2.11,1,1.0
4,1,71,1,2,3,41,4,3,5,3,1,1,2.0,0.79,45.33,2.371,1,1.0
4,1,72,1,2,4,16,35,4,2,4,1,1,2.0,0.88,46.21,3.218,1,1.0
4,1,73,1,2,5,14,51,5,3,5,1,1,2.0,0.94,47.15,1.503,1,1.0
4,1,74,1,1,1,14,30,2,5,5,2,1,2.0,0.03,47.18,1.607,1,2.0
4,1,75,1,1,2,48,47,2,5,5,2,1,2.0,0.6,47.78,2.897,1,1.0
4,1,76,1,1,3,25,2,5,4,4,2,1,2.0,0.61,48.39,2.262,1,1.0
4,1,77,1,2,1,24,51,4,2,4,1,1,2.0,0.03,48.42,2.889,1,2.0
4,1,78,1,2,2,32,20,5,3,5,1,1,2.0,0.15,48.57,1.601,1,1.0
4,1,79,1,2,3,26,16,3,2,3,1,1,2.0,1.01,49.58,2.624,1,1.0
4,1,80,1,1,1,31,19,2,4,4,2,1,2.0,0.44,50.02,2.713,1,2.0
4,1,81,1,1,2,8,29,5,4,4,2,1,2.0,0.68,50.7,1.518,1,1.0
4,1,82,1,1,3,37,51,2,3,3,2,1,2.0,0.54,51.24,3.44,1,1.0
4,1,83,1,1,4,1,46,4,5,5,2,1,2.0,0.2,51.44,5.072,1,1.0
4,1,84,1,1,5,51,42,2,3,3,2,1,2.0,0.24,51.68,3.082,1,1.0
4,1,1,2,1,1,47,34,4,3,3,2,1,2.0,0.71,52.39,2.256,1,
4,1,2,2,1,2,4,16,5,3,3,2,1,2.0,0.05,52.44,1.705,1,1.0
4,1,3,2,2,1,43,8,2,3,2,1,1,2.0,0.87,53.31,3.081,1,2.0
4,1,4,2,1,1,16,50,3,2,2,2,1,2.0,0.77,54.08,1.844,1,2.0
4,1,5,2,1,2,32,1,4,2,2,2,1,2.0,0.11,54.19,1.041,1,1.0
4,1,6,2,1,3,2,15,2,5,5,2,1,2.0,0.37,54.56,1.727,1,1.0
4,1,7,2,1,4,21,4,4,2,2,2,1,2.0,0.96,55.52,1.585,1,1.0
4,1,8,2,1,5,6,1,2,3,3,2,1,2.0,0.26,55.78,1.153,1,1.0
4,1,9,2,1,6,21,19,5,3,3,2,1,2.0,0.65,56.43,2.415,1,1.0
4,1,11,2,2,2,42,10,2,4,2,1,1,2.0,0.61,57.04,3.146,1,
4,1,12,2,2,3,1,33,3,5,3,1,1,2.0,0.51,57.55,3.181,1,1.0
4,1,13,2,2,4,2,43,3,2,3,1,1,2.0,0.03,57.58,1.719,1,1.0
4,1,14,2,2,5,40,46,3,5,3,1,1,2.0,0.05,57.63,3.924,1,1.0
4,1,15,2,1,1,21,18,4,2,2,2,1,2.0,0.32,57.95,2.616,1,2.0
4,1,16,2,1,2,41,30,5,2,2,2,1,2.0,0.0,57.95,4.489,1,1.0
4,1,17,2,1,3,11,25,3,4,4,2,1,2.0,1.19,59.14,2.591,1,1.0
4,1,18,2,1,4,19,50,5,4,4,2,1,2.0,0.53,59.67,3.264,1,1.0
4,1,19,2,1,5,12,1,4,2,2,2,1,2.0,0.48,60.15,1.459,1,1.0
4,1,20,2,2,1,3,36,3,2,3,1,1,2.0,0.38,60.53,3.905,1,2.0
4,1,21,2,2,2,27,9,2,4,2,1,1,2.0,0.95,61.48,2.993,1,1.0
4,1,22,2,2,3,1,54,4,3,4,1,1,2.0,0.56,62.04,1.313,1,1.0
4,1,23,2,2,4,52,29,2,5,2,1,1,2.0,0.81,62.85,2.529,1,1.0
4,1,24,2,1,1,11,29,4,5,5,2,1,2.0,0.28,63.13,4.545,1,2.0
4,1,25,2,1,2,13,31,2,3,3,2,1,2.0,0.38,63.51,1.705,1,1.0
4,1,26,2,1,3,46,36,5,2,2,2,1,2.0,0.94,64.45,1.609,1,1.0
4,1,27,2,2,1,28,4,2,3,2,1,1,2.0,0.51,64.96,3.369,1,2.0
4,1,28,2,2,2,44,35,3,2,3,1,1,2.0,0.2,65.16,5.295,1,1.0
4,1,29,2,1,1,36,25,4,2,2,2,1,2.0,0.88,66.04,2.338,1,2.0
4,1,30,2,1,2,6,40,5,3,3,2,1,2.0,0.61,66.65,3.492,1,1.0
4,1,31,2,1,3,31,17,2,5,5,2,1,2.0,0.03,66.68,2.998,1,1.0
4,1,32,2,1,4,35,1,2,3,3,2,1,2.0,1.13,67.81,1.822,1,1.0
4,1,33,2,2,1,30,44,2,3,2,1,1,2.0,0.64,68.45,2.143,1,2.0
4,1,34,2,2,2,13,40,5,4,5,1,1,2.0,1.2,69.65,3.087,1,1.0
4,1,35,2,2,3,3,40,2,5,2,1,1,2.0,1.04,70.69,3.134,1,1.0
4,1,36,2,1,1,47,21,5,3,3,2,1,2.0,0.18,70.87,6.192,1,2.0
4,1,37,2,2,1,31,29,3,4,3,1,1,2.0,0.47,71.34,4.572,1,2.0
4,1,38,2,2,2,29,22,3,5,3,1,1,2.0,0.34,71.68,2.799,1,1.0
4,1,39,2,2,3,16,31,5,3,5,1,1,2.0,0.1,71.78,3.568,1,1.0
4,1,40,2,2,4,12,34,5,4,5,1,1,2.0,0.73,72.51,1.133,1,1.0
4,1,41,2,2,5,54,33,2,4,2,1,1,2.0,1.2,73.71,2.84,1,1.0
4,1,42,2,2,6,51,38,3,2,3,1,1,2.0,0.24,73.95,3.452,1,1.0
4,1,44,2,1,2,2,22,5,4,4,2,1,2.0,0.38,74.43,3.103,1,1.0
4,1,45,2,1,3,14,37,2,4,4,2,1,2.0,0.81,75.24,2.072,1,1.0
4,1,46,2,1,4,40,14,3,4,4,2,1,2.0,0.1,75.34,3.274,1,1.0
4,1,47,2,1,5,15,23,3,4,4,2,1,2.0,0.44,75.78,2.264,1,1.0
4,1,48,2,1,6,14,23,4,3,3,2,1,2.0,0.47,76.25,2.801,1,1.0
4,1,49,2,2,1,42,16,4,5,4,1,1,2.0,0.73,76.98,3.239,1,2.0
4,1,50,2,2,2,26,30,4,5,4,1,1,2.0,0.22,77.2,3.245,1,1.0
4,1,51,2,2,3,31,51,2,3,2,1,1,2.0,0.43,77.63,1.896,1,1.0
4,1,52,2,2,4,3,31,3,5,3,1,1,2.0,0.3,77.93,3.505,1,1.0
4,1,53,2,1,1,18,51,5,2,2,2,1,2.0,0.46,78.39,1.353,1,2.0
4,1,54,2,2,1,5,26,4,5,4,1,1,2.0,1.22,79.61,2.729,1,2.0
4,1,55,2,2,2,2,51,4,3,4,1,1,2.0,0.21,79.82,1.814,1,1.0
4,1,56,2,2,3,25,22,5,3,5,1,1,2.0,0.72,80.54,3.291,1,1.0
4,1,57,2,2,4,11,22,5,3,5,1,1,2.0,0.07,80.61,4.441,1,1.0
4,1,58,2,2,5,46,29,2,5,2,1,1,2.0,0.52,81.13,3.079,1,1.0
4,1,59,2,2,6,48,41,5,2,5,1,1,2.0,0.2,81.33,4.015,1,1.0
4,1,61,2,1,2,2,26,2,5,5,2,1,2.0,0.76,82.84,4.136,1,1.0
4,1,62,2,1,3,3,47,4,2,2,2,1,2.0,0.4,83.24,5.31,1,1.0
4,1,63,2,2,1,39,25,5,4,5,1,1,2.0,0.56,83.8,4.881,1,2.0
4,1,64,2,1,1,48,39,5,2,2,2,1,2.0,1.25,85.05,3.11,1,2.0
4,1,66,2,2,1,22,8,4,2,4,1,1,2.0,0.46,86.49,3.017,1,2.0
4,1,67,2,2,2,39,44,4,3,4,1,1,2.0,0.18,86.67,3.175,1,1.0
4,1,68,2,2,3,54,24,4,3,4,1,1,2.0,0.02,86.69,1.777,1,1.0
4,1,69,2,1,1,13,1,5,4,4,2,1,2.0,0.64,87.33,1.422,1,2.0
4,1,70,2,1,2,2,11,2,5,5,2,1,2.0,0.3,87.63,1.208,1,1.0
4,1,71,2,1,3,38,34,3,4,4,2,1,2.0,0.53,88.16,1.568,1,1.0
4,1,72,2,1,4,16,29,4,5,5,2,1,2.0,0.33,88.49,4.152,1,1.0
4,1,73,2,1,5,26,34,5,2,2,2,1,2.0,0.28,88.77,1.743,1,1.0
4,1,74,2,2,1,50,20,5,4,5,1,1,2.0,0.67,89.44,5.937,1,2.0
4,1,75,2,2,2,28,29,3,2,3,1,1,2.0,0.84,90.28,1.984,1,1.0
4,1,76,2,2,3,30,19,4,5,4,1,1,2.0,1.5,91.78,3.736,1,1.0
4,1,77,2,2,4,25,10,2,4,2,1,1,2.0,0.02,91.8,2.481,1,1.0
4,1,78,2,2,5,6,47,3,4,3,1,1,2.0,0.99,92.79,3.367,1,1.0
4,1,79,2,1,1,54,38,3,5,3,1,1,1.0,0.45,93.24,2.274,0,1.0
4,1,80,2,1,2,48,38,3,2,2,2,1,2.0,0.65,93.89,2.885,1,2.0
4,1,81,2,1,3,7,17,3,4,4,2,1,2.0,1.23,95.12,3.509,1,1.0
4,1,82,2,1,4,43,41,4,3,3,2,1,2.0,0.83,95.95,4.678,1,1.0
4,1,83,2,2,1,9,3,2,4,4,2,1,1.0,0.73,96.68,4.329,0,1.0
4,1,84,2,2,2,54,12,4,5,4,1,1,2.0,0.74,97.42,1.391,1,2.0
4,1,1,3,2,1,38,28,3,5,3,1,1,2.0,1.38,98.8,2.763,1,
4,1,2,3,2,2,2,47,2,4,2,1,1,2.0,0.34,99.14,3.175,1,1.0
4,1,3,3,2,3,44,5,4,5,4,1,1,2.0,0.4,99.54,3.168,1,1.0
4,1,4,3,2,4,5,3,4,3,4,1,1,2.0,1.06,100.6,2.265,1,1.0
4,1,5,3,1,1,33,44,3,4,4,2,1,2.0,0.8,101.4,3.152,1,2.0
4,1,6,3,1,2,38,53,5,3,3,2,1,2.0,0.22,101.62,1.178,1,1.0
4,1,7,3,2,1,30,41,5,2,5,1,1,2.0,0.76,102.38,1.391,1,2.0
4,1,8,3,2,2,17,4,2,3,2,1,1,2.0,0.54,102.92,1.264,1,1.0
4,1,9,3,2,3,8,3,5,3,5,1,1,2.0,0.27,103.19,6.655,1,1.0
4,1,10,3,2,4,51,11,2,4,2,1,1,2.0,0.72,103.91,2.647,1,1.0
4,1,11,3,2,5,34,6,2,4,2,1,1,2.0,0.35,104.26,1.225,1,1.0
4,1,12,3,2,6,1,25,4,2,4,1,1,2.0,1.08,105.34,3.279,1,1.0
4,1,13,3,1,1,50,42,4,5,4,1,1,1.0,0.43,105.77,2.983,0,1.0
4,1,14,3,1,2,27,3,4,3,3,2,1,2.0,1.0,106.77,6.267,1,2.0
4,1,15,3,1,3,19,17,4,3,3,2,1,2.0,0.45,107.22,6.256,1,1.0
4,1,16,3,2,1,5,43,4,3,4,1,1,2.0,0.68,107.9,1.838,1,2.0
4,1,17,3,1,1,1,14,3,2,2,2,1,2.0,0.94,108.84,1.263,1,2.0
4,1,18,3,1,2,6,7,4,2,2,2,1,2.0,0.2,109.04,1.848,1,1.0
4,1,19,3,1,3,25,11,3,5,5,2,1,2.0,0.17,109.21,3.613,1,1.0
4,1,20,3,1,4,5,19,4,3,3,2,1,2.0,0.02,109.23,2.376,1,1.0
4,1,21,3,1,5,8,3,2,4,4,2,1,2.0,0.41,109.64,2.464,1,1.0
4,1,22,3,2,1,26,48,4,2,4,1,1,2.0,1.22,110.86,2.736,1,2.0
4,1,23,3,2,2,27,30,5,4,5,1,1,2.0,0.48,111.34,3.728,1,1.0
4,1,24,3,1,1,5,53,2,3,3,2,1,2.0,1.08,112.42,3.582,1,2.0
4,1,25,3,1,2,43,45,3,5,5,2,1,2.0,0.17,112.59,2.336,1,1.0
4,1,26,3,1,3,35,36,2,3,3,2,1,2.0,0.5,113.09,1.129,1,1.0
4,1,27,3,1,4,12,31,5,3,3,2,1,2.0,0.13,113.22,5.017,1,1.0
4,1,28,3,1,5,43,8,3,5,5,2,1,2.0,0.78,114.0,2.04,1,1.0
4,1,29,3,1,6,17,48,4,5,5,2,1,2.0,0.38,114.38,3.135,1,1.0
4,1,30,3,2,1,50,20,3,2,3,1,1,2.0,0.73,115.11,4.565,1,2.0
4,1,31,3,2,2,24,23,3,2,3,1,1,2.0,0.81,115.92,2.462,1,1.0
4,1,32,3,2,3,23,20,2,3,2,1,1,2.0,0.46,116.38,1.236,1,1.0
4,1,33,3,2,4,6,36,2,5,2,1,1,2.0,0.92,117.3,3.649,1,1.0
4,1,34,3,2,5,2,22,5,2,5,1,1,2.0,1.59,118.89,4.533,1,1.0
4,1,35,3,1,1,47,31,3,4,3,1,1,1.0,0.56,119.45,2.952,0,1.0
4,1,36,3,2,1,41,11,5,3,5,1,1,2.0,0.49,119.94,3.281,1,1.0
4,1,37,3,2,2,45,50,5,2,5,1,1,2.0,0.93,120.87,2.544,1,1.0
4,1,38,3,2,3,15,19,2,5,2,1,1,2.0,0.53,121.4,1.375,1,1.0
4,1,39,3,1,1,9,25,5,3,3,2,1,2.0,0.73,122.13,4.393,1,2.0
4,1,40,3,1,2,3,14,2,5,5,2,1,2.0,0.5,122.63,1.506,1,1.0
4,1,41,3,1,3,18,52,3,5,5,2,1,2.0,0.37,123.0,3.014,1,1.0
4,1,43,3,2,1,3,50,3,5,3,1,1,2.0,1.1,124.1,4.456,1,
4,1,44,3,2,2,45,51,2,3,2,1,1,2.0,1.38,125.48,2.449,1,1.0
4,1,45,3,2,3,46,35,5,4,5,1,1,2.0,0.25,125.73,2.432,1,1.0
4,1,46,3,2,4,8,54,5,4,5,1,1,2.0,0.55,126.28,2.776,1,1.0
4,1,47,3,2,5,46,15,2,5,2,1,1,2.0,0.12,126.4,2.25,1,1.0
4,1,48,3,2,6,4,10,3,4,3,1,1,2.0,0.82,127.22,2.522,1,1.0
4,1,49,3,1,1,24,33,4,5,5,2,1,2.0,0.97,128.19,2.824,1,2.0
4,1,50,3,2,1,50,21,5,2,2,2,1,1.0,0.53,128.72,1.921,0,1.0
4,1,51,3,2,2,26,1,3,4,4,2,1,1.0,0.53,129.25,1.912,0,1.0
4,1,52,3,2,3,36,29,5,3,5,1,1,2.0,1.07,130.32,5.168,1,2.0
4,1,53,3,2,4,1,18,4,2,4,1,1,2.0,0.37,130.69,1.321,1,1.0
4,1,54,3,1,1,1,37,5,4,4,2,1,2.0,0.44,131.13,2.774,1,2.0
4,1,55,3,1,2,31,18,5,4,4,2,1,2.0,0.17,131.3,2.265,1,1.0
4,1,56,3,2,1,42,36,3,2,3,1,1,2.0,0.63,131.93,3.511,1,2.0
4,1,57,3,2,2,42,12,2,4,4,2,1,1.0,0.44,132.37,1.6,0,2.0
4,1,58,3,1,1,21,26,2,4,4,2,1,2.0,1.01,133.38,2.04,1,1.0
4,1,59,3,1,2,37,15,5,2,2,2,1,2.0,0.16,133.54,1.313,1,1.0
4,1,60,3,1,3,29,20,4,3,4,1,1,1.0,0.5,134.04,1.464,0,2.0
4,1,61,3,1,4,32,20,2,5,5,2,1,2.0,0.5,134.54,2.193,1,2.0
4,1,62,3,2,1,44,16,5,2,2,2,1,1.0,0.47,135.01,4.095,0,1.0
4,1,63,3,2,2,10,51,4,2,4,1,1,2.0,0.69,135.7,4.041,1,2.0
4,1,64,3,2,3,41,25,4,5,4,1,1,2.0,0.38,136.08,3.04,1,1.0
4,1,65,3,2,4,11,39,3,4,3,1,1,2.0,0.02,136.1,2.515,1,1.0
4,1,66,3,2,5,17,2,5,4,5,1,1,2.0,0.61,136.71,2.334,1,1.0
4,1,68,3,1,2,35,38,2,3,3,2,1,2.0,0.34,137.05,3.733,1,
4,1,69,3,1,3,8,39,4,5,5,2,1,2.0,0.06,137.11,2.145,1,1.0
4,1,70,3,1,4,11,9,4,2,2,2,1,2.0,0.02,137.13,4.297,1,1.0
4,1,71,3,1,5,4,9,4,5,5,2,1,2.0,0.31,137.44,2.913,1,1.0
4,1,73,3,2,1,6,39,5,4,4,2,1,1.0,0.52,137.96,2.458,0,
4,1,74,3,2,2,54,28,2,5,5,2,1,1.0,0.49,138.45,0.789,0,1.0
4,1,75,3,2,3,51,47,3,2,3,1,1,2.0,1.0,139.45,3.144,1,2.0
4,1,76,3,1,1,6,33,3,4,3,1,1,1.0,0.47,139.92,1.839,0,1.0
4,1,77,3,1,2,17,4,4,3,3,2,1,2.0,0.5,140.42,1.304,1,2.0
4,1,78,3,1,3,54,50,3,2,2,2,1,2.0,0.53,140.95,4.975,1,1.0
4,1,79,3,2,1,43,5,4,2,4,1,1,2.0,0.65,141.6,2.136,1,2.0
4,1,80,3,1,1,39,50,3,2,2,2,1,2.0,0.74,142.34,2.295,1,2.0
4,1,81,3,1,2,43,38,5,2,2,2,1,2.0,1.1,143.44,2.097,1,1.0
4,1,82,3,1,3,22,52,3,5,5,2,1,2.0,0.24,143.68,1.597,1,1.0
4,1,83,3,1,4,23,48,2,5,5,2,1,2.0,0.62,144.3,2.599,1,1.0
4,1,84,3,1,5,53,17,3,4,4,2,1,2.0,0.49,144.79,1.647,1,1.0
4,1,1,4,2,1,12,35,4,5,4,1,1,2.0,0.23,145.02,3.001,1,
4,1,2,4,2,2,3,41,5,4,5,1,1,2.0,1.51,146.53,2.626,1,1.0
4,1,3,4,1,1,35,3,5,4,4,2,1,2.0,0.38,146.91,3.192,1,2.0
4,1,4,4,1,2,2,3,5,2,2,2,1,2.0,1.33,148.24,2.143,1,1.0
4,1,5,4,2,1,30,31,4,3,3,2,1,1.0,0.54,148.78,2.569,0,1.0
4,1,6,4,2,2,20,27,4,5,5,2,1,1.0,0.37,149.15,4.102,0,1.0
4,1,7,4,2,3,6,44,3,2,3,1,1,2.0,0.79,149.94,4.831,1,2.0
4,1,8,4,1,1,12,46,2,3,3,2,1,2.0,1.1,151.04,3.775,1,2.0
4,1,9,4,1,2,8,30,2,5,5,2,1,2.0,0.08,151.12,2.68,1,1.0
4,1,10,4,1,3,1,16,4,3,3,2,1,2.0,0.56,151.68,1.111,1,1.0
4,1,12,4,1,5,4,37,2,4,4,2,1,2.0,0.43,152.11,1.545,1,
4,1,13,4,2,1,9,53,4,3,3,2,1,1.0,0.36,152.47,1.735,0,1.0
4,1,14,4,2,2,37,25,2,4,2,1,1,2.0,1.06,153.53,5.47,1,2.0
4,1,15,4,2,3,26,23,3,4,3,1,1,2.0,0.49,154.02,3.417,1,1.0
4,1,16,4,2,4,13,19,2,5,2,1,1,2.0,0.75,154.77,2.623,1,1.0
4,1,17,4,2,5,7,37,5,3,5,1,1,2.0,0.16,154.93,1.095,1,1.0
4,1,18,4,1,1,14,6,2,5,5,2,1,2.0,0.19,155.12,2.232,1,2.0
4,1,19,4,1,2,31,40,4,2,4,1,1,1.0,0.54,155.66,1.672,0,2.0
4,1,20,4,1,3,19,13,5,3,3,2,1,2.0,0.55,156.21,1.415,1,2.0
4,1,21,4,2,1,33,4,3,2,3,1,1,2.0,1.37,157.58,5.941,1,2.0
4,1,22,4,2,2,4,43,4,2,4,1,1,2.0,0.37,157.95,1.471,1,1.0
4,1,23,4,2,3,19,33,4,3,4,1,1,2.0,1.54,159.49,3.424,1,1.0
4,1,24,4,2,4,43,8,3,5,3,1,1,2.0,1.21,160.7,2.121,1,1.0
4,1,25,4,1,1,31,10,2,5,2,1,1,1.0,0.27,160.97,2.736,0,1.0
4,1,26,4,1,2,44,15,5,4,4,2,1,2.0,0.23,161.2,3.713,1,2.0
4,1,27,4,1,3,39,4,3,2,2,2,1,2.0,0.41,161.61,4.559,1,1.0
4,1,28,4,1,4,52,53,3,5,5,2,1,2.0,0.5,162.11,3.176,1,1.0
4,1,29,4,2,1,9,37,3,2,3,1,1,2.0,0.89,163.0,3.943,1,2.0
4,1,30,4,1,1,28,31,5,3,3,2,1,2.0,0.16,163.16,2.808,1,2.0
4,1,31,4,2,1,21,49,5,2,5,1,1,2.0,0.16,163.32,4.985,1,2.0
4,1,32,4,2,2,31,10,2,4,4,2,1,1.0,0.48,163.8,2.215,0,2.0
4,1,33,4,2,3,46,25,4,5,4,1,1,2.0,0.49,164.29,2.223,1,2.0
4,1,34,4,2,4,18,40,5,4,5,1,1,2.0,0.63,164.92,3.509,1,1.0
4,1,35,4,2,5,26,52,4,5,4,1,1,2.0,1.0,165.92,5.465,1,1.0
4,1,36,4,2,6,29,13,5,2,5,1,1,2.0,0.79,166.71,2.451,1,1.0
4,1,37,4,1,1,54,9,2,4,4,2,1,2.0,0.83,167.54,4.652,1,2.0
4,1,38,4,1,2,22,37,3,4,3,1,1,1.0,0.6,168.14,3.077,0,2.0
4,1,39,4,1,3,23,36,3,4,3,1,1,1.0,0.57,168.71,3.942,0,1.0
4,1,40,4,1,4,16,37,5,3,3,2,1,2.0,1.12,169.83,6.201,1,2.0
4,1,41,4,1,5,20,10,2,5,5,2,1,2.0,0.65,170.48,0.823,1,1.0
4,1,42,4,1,6,3,34,5,3,3,2,1,2.0,0.18,170.66,4.024,1,1.0
4,1,43,4,2,1,20,52,3,4,4,2,1,1.0,0.48,171.14,4.185,0,1.0
4,1,44,4,1,1,5,47,2,4,4,2,1,2.0,0.72,171.86,2.321,1,1.0
4,1,45,4,1,2,44,52,4,3,3,2,1,2.0,0.56,172.42,2.063,1,1.0
4,1,46,4,1,3,17,54,4,3,3,2,1,2.0,0.22,172.64,2.408,1,1.0
4,1,48,4,1,5,51,46,4,2,2,2,1,2.0,0.19,172.83,1.818,1,
4,1,49,4,1,6,50,25,3,5,5,2,1,2.0,0.48,173.31,1.074,1,1.0
4,1,50,4,2,1,28,45,2,3,2,1,1,2.0,0.68,173.99,1.288,1,2.0
4,1,51,4,2,2,22,11,3,4,4,2,1,1.0,0.46,174.45,1.183,0,2.0
4,1,52,4,1,1,38,36,3,5,5,2,1,2.0,0.26,174.71,1.509,1,1.0
4,1,53,4,2,1,34,47,5,2,2,2,1,1.0,0.5,175.21,1.913,0,1.0
4,1,54,4,2,2,39,12,4,2,2,2,1,1.0,0.48,175.69,2.161,0,1.0
4,1,55,4,2,3,24,41,2,3,2,1,1,2.0,0.05,175.74,1.047,1,2.0
4,1,56,4,2,4,2,51,5,2,5,1,1,2.0,1.11,176.85,4.209,1,1.0
4,1,57,4,1,1,36,52,3,4,4,2,1,2.0,0.71,177.56,4.1,1,2.0
4,1,58,4,1,2,30,15,3,5,3,1,1,1.0,0.65,178.21,2.506,0,2.0
4,1,59,4,1,3,36,46,2,3,3,2,1,2.0,0.27,178.48,4.175,1,2.0
4,1,60,4,1,4,36,27,3,2,2,2,1,2.0,0.88,179.36,2.436,1,1.0
4,1,61,4,2,1,1,4,5,3,3,2,1,1.0,0.5,179.86,4.825,0,1.0
4,1,62,4,2,2,52,47,2,3,3,2,1,1.0,0.41,180.27,2.489,0,1.0
4,1,63,4,2,3,24,36,4,2,2,2,1,1.0,0.49,180.76,2.351,0,1.0
4,1,64,4,2,4,26,52,2,3,2,1,1,2.0,1.01,181.77,2.767,1,2.0
4,1,65,4,2,5,5,26,4,5,4,1,1,2.0,0.04,181.81,3.51,1,1.0
4,1,66,4,2,6,30,49,3,2,2,2,1,1.0,0.42,182.23,2.282,0,2.0
4,1,67,4,1,1,47,5,4,5,5,2,1,2.0,1.13,183.36,6.665,1,1.0
4,1,68,4,1,2,10,5,5,2,2,2,1,2.0,0.07,183.43,4.392,1,1.0
4,1,69,4,2,1,46,43,2,4,4,2,1,1.0,0.45,183.88,2.319,0,1.0
4,1,70,4,2,2,19,51,5,2,5,1,1,2.0,0.26,184.14,2.79,1,2.0
4,1,71,4,2,3,54,43,4,3,4,1,1,2.0,1.26,185.4,4.416,1,1.0
4,1,72,4,2,4,19,14,3,4,3,1,1,2.0,0.54,185.94,4.952,1,1.0
4,1,73,4,2,5,35,53,5,4,5,1,1,2.0,1.32,187.26,3.328,1,1.0
4,1,74,4,1,1,43,33,3,5,5,2,1,2.0,1.41,188.67,2.438,1,2.0
4,1,75,4,1,2,33,20,2,4,4,2,1,2.0,1.27,189.94,3.128,1,1.0
4,1,76,4,1,3,51,53,3,5,5,2,1,2.0,0.4,190.34,3.878,1,1.0
4,1,77,4,2,1,20,30,2,5,2,1,1,2.0,0.41,190.75,2.368,1,2.0
4,1,78,4,2,2,17,50,3,2,3,1,1,2.0,0.64,191.39,2.623,1,1.0
4,1,79,4,2,3,34,52,2,3,2,1,1,2.0,0.23,191.62,3.769,1,1.0
4,1,80,4,1,1,47,17,5,4,4,2,1,2.0,0.04,191.66,2.953,1,2.0
4,1,81,4,1,2,10,3,4,5,5,2,1,2.0,0.29,191.95,3.208,1,1.0
4,1,82,4,1,3,13,9,5,3,3,2,1,2.0,1.01,192.96,3.111,1,1.0
4,1,83,4,1,4,34,3,2,5,5,2,1,2.0,1.62,194.58,3.402,1,1.0
4,1,84,4,1,5,49,40,4,2,2,2,1,2.0,0.61,195.19,4.111,1,1.0
5,2,1,1,2,1,6,31,2,3,3,2,1,2.0,0.3,0.3,2.88,0,
5,2,2,1,2,2,49,25,3,5,5,2,1,2.0,0.56,0.86,8.844,0,1.0
5,2,3,1,2,3,47,27,4,2,2,2,1,2.0,0.64,1.5,7.111,0,1.0
5,2,5,1,2,1,34,37,5,4,5,1,1,1.0,0.36,1.86,12.735,1,
5,2,6,1,1,1,32,2,5,2,2,2,1,1.0,0.64,2.5,3.583,1,2.0
5,2,7,1,1,2,22,5,4,5,4,1,1,2.0,1.06,3.56,5.453,0,2.0
5,2,8,1,1,3,18,52,3,2,3,1,1,2.0,0.48,4.04,7.153,0,1.0
5,2,9,1,1,4,48,14,4,3,3,2,1,1.0,0.54,4.58,5.281,1,2.0
5,2,10,1,1,5,15,31,5,4,5,1,1,2.0,0.58,5.16,5.658,0,2.0
5,2,11,1,2,1,52,48,5,4,4,2,1,2.0,0.41,5.57,12.71,0,2.0
5,2,12,1,2,2,48,36,3,2,3,1,1,1.0,0.59,6.16,12.375,1,2.0
5,2,13,1,2,3,27,21,5,3,3,2,1,2.0,0.22,6.38,7.365,0,2.0
5,2,15,1,1,1,50,40,2,4,2,1,1,2.0,0.44,8.35,9.024,0,2.0
5,2,16,1,1,2,41,28,2,3,2,1,1,2.0,0.55,8.9,4.628,0,1.0
5,2,17,1,1,3,13,17,3,5,3,1,1,2.0,1.0,9.9,6.409,0,1.0
5,2,18,1,2,1,34,46,5,2,5,1,1,1.0,0.51,10.41,8.311,1,1.0
5,2,19,1,2,2,2,27,5,3,3,2,1,2.0,0.45,10.86,7.047,0,2.0
5,2,20,1,2,3,53,17,5,4,4,2,1,2.0,0.11,10.97,6.362,0,1.0
5,2,21,1,2,4,53,48,5,4,4,2,1,2.0,0.64,11.61,9.322,0,1.0
5,2,22,1,2,5,53,29,2,3,2,1,1,1.0,0.34,11.95,2.002,1,2.0
5,2,23,1,1,1,43,38,3,4,4,2,1,1.0,0.58,12.53,4.352,1,2.0
5,2,24,1,1,2,8,9,4,3,4,1,1,2.0,1.27,13.8,12.911,0,2.0
5,2,25,1,1,3,23,27,4,2,4,1,1,2.0,0.17,13.97,8.344,0,1.0
5,2,26,1,1,4,37,9,2,3,2,1,1,2.0,0.9,14.87,7.032,0,1.0
5,2,27,1,1,5,35,5,2,5,2,1,1,2.0,1.09,15.96,5.564,0,1.0
5,2,28,1,1,6,7,35,5,2,2,2,1,1.0,0.31,16.27,3.195,1,2.0
5,2,29,1,2,1,34,8,4,5,4,1,1,1.0,0.33,16.6,1.705,1,2.0
5,2,30,1,2,2,22,19,3,2,2,2,1,2.0,0.77,17.37,5.234,0,2.0
5,2,31,1,1,1,22,47,2,3,2,1,1,2.0,0.31,17.68,6.463,0,2.0
5,2,32,1,1,2,11,36,4,2,4,1,1,2.0,0.83,18.51,3.13,0,1.0
5,2,33,1,2,1,28,54,5,3,5,1,1,1.0,0.6,19.11,4.762,1,1.0
5,2,34,1,2,2,28,7,2,4,4,2,1,2.0,0.84,19.95,2.777,0,2.0
5,2,35,1,2,3,25,22,2,4,4,2,1,2.0,1.11,21.06,7.128,0,1.0
5,2,36,1,2,4,33,43,2,5,2,1,1,1.0,0.58,21.64,8.424,1,2.0
5,2,37,1,2,5,31,46,4,2,4,1,1,1.0,0.64,22.28,8.293,1,1.0
5,2,38,1,2,6,3,24,3,4,4,2,1,2.0,0.49,22.77,10.039,0,2.0
5,2,39,1,1,1,25,4,4,3,4,1,1,2.0,0.43,23.2,1.363,0,2.0
5,2,40,1,1,2,39,20,5,4,4,2,1,1.0,0.31,23.51,7.45,1,2.0
5,2,41,1,1,3,6,17,5,2,5,1,1,2.0,0.62,24.13,1.885,0,2.0
5,2,42,1,1,4,3,52,4,3,4,1,1,2.0,0.0,24.13,1.391,0,1.0
5,2,43,1,2,1,35,8,2,5,5,2,1,2.0,1.17,25.3,1.381,0,2.0
5,2,44,1,2,2,7,27,2,5,2,1,1,1.0,0.41,25.71,1.979,1,2.0
5,2,45,1,2,3,24,38,2,5,2,1,1,1.0,0.56,26.27,5.562,1,1.0
5,2,46,1,2,4,42,47,3,5,3,1,1,1.0,0.53,26.8,7.099,1,1.0
5,2,47,1,2,5,2,26,4,2,4,1,1,1.0,0.39,27.19,1.93,1,1.0
5,2,48,1,2,6,14,44,2,4,2,1,1,1.0,0.24,27.43,4.09,1,1.0
5,2,49,1,1,1,8,11,4,5,4,1,1,2.0,0.47,27.9,1.78,0,1.0
5,2,50,1,1,2,36,25,5,3,3,2,1,1.0,0.38,28.28,9.066,1,2.0
5,2,51,1,1,3,31,3,2,4,4,2,1,1.0,0.57,28.85,4.557,1,1.0
5,2,52,1,1,4,9,50,4,5,4,1,1,2.0,0.74,29.59,1.14,0,2.0
5,2,53,1,1,5,12,16,5,2,2,2,1,1.0,0.7,30.29,5.557,1,2.0
5,2,54,1,2,1,23,15,4,3,4,1,1,1.0,0.57,30.86,5.043,1,2.0
5,2,55,1,2,2,13,33,4,5,4,1,1,1.0,0.42,31.28,3.88,1,1.0
5,2,56,1,1,1,22,11,5,4,4,2,1,1.0,0.54,31.82,3.081,1,2.0
5,2,57,1,1,2,50,7,3,2,2,2,1,1.0,0.38,32.2,1.948,1,1.0
5,2,58,1,1,3,19,14,3,5,5,2,1,1.0,0.5,32.7,4.907,1,1.0
5,2,59,1,1,4,8,29,3,2,3,1,1,2.0,0.48,33.18,2.5,0,2.0
5,2,60,1,1,5,45,32,3,2,3,1,1,2.0,0.5,33.68,6.989,0,1.0
5,2,61,1,1,6,45,6,2,4,4,2,1,1.0,0.46,34.14,2.18,1,2.0
5,2,62,1,2,1,28,21,4,2,2,2,1,2.0,1.02,35.16,6.025,0,1.0
5,2,63,1,1,1,31,19,3,2,2,2,1,1.0,0.28,35.44,5.27,1,1.0
5,2,64,1,2,1,43,25,3,4,4,2,1,2.0,0.7,36.14,4.609,0,1.0
5,2,65,1,2,2,35,43,5,2,5,1,1,1.0,0.61,36.75,8.438,1,2.0
5,2,66,1,2,3,4,21,4,5,4,1,1,1.0,0.59,37.34,2.483,1,1.0
5,2,67,1,2,4,33,30,3,5,5,2,1,2.0,0.77,38.11,4.124,0,2.0
5,2,68,1,1,1,10,4,2,5,5,2,1,1.0,0.5,38.61,1.909,1,1.0
5,2,69,1,1,2,54,22,3,4,4,2,1,1.0,0.58,39.19,5.27,1,1.0
5,2,70,1,1,3,15,5,3,5,5,2,1,1.0,0.57,39.76,3.553,1,1.0
5,2,71,1,2,1,8,13,3,5,3,1,1,1.0,0.47,40.23,1.584,1,2.0
5,2,72,1,2,2,43,31,2,3,3,2,1,2.0,0.32,40.55,8.942,0,2.0
5,2,73,1,2,3,26,38,5,3,5,1,1,1.0,0.47,41.02,3.638,1,2.0
5,2,74,1,1,1,21,11,4,3,3,2,1,1.0,0.33,41.35,1.298,1,2.0
5,2,75,1,1,2,52,28,3,4,4,2,1,1.0,0.47,41.82,6.155,1,1.0
5,2,76,1,2,1,48,42,2,3,3,2,1,2.0,0.56,42.38,11.379,0,1.0
5,2,77,1,2,2,29,31,4,3,4,1,1,1.0,0.54,42.92,3.897,1,2.0
5,2,78,1,2,3,2,3,2,4,2,1,1,1.0,0.67,43.59,3.211,1,1.0
5,2,79,1,2,4,28,2,5,3,3,2,1,2.0,0.33,43.92,3.352,0,2.0
5,2,80,1,2,5,30,21,3,4,3,1,1,1.0,0.57,44.49,3.247,1,2.0
5,2,81,1,1,1,1,42,5,3,5,1,1,2.0,0.88,45.37,1.163,0,1.0
5,2,82,1,1,2,42,11,2,5,2,1,1,2.0,0.94,46.31,11.705,0,1.0
5,2,83,1,1,3,53,14,4,2,4,1,1,2.0,0.03,46.34,7.826,0,1.0
5,2,84,1,1,4,25,40,3,4,3,1,1,2.0,0.6,46.94,5.287,0,1.0
5,2,1,2,1,1,7,1,2,5,5,2,1,1.0,0.53,47.47,1.924,1,
5,2,2,2,1,2,1,40,2,3,2,1,1,2.0,0.03,47.5,3.892,0,2.0
5,2,3,2,1,3,13,36,3,2,3,1,1,2.0,0.15,47.65,3.19,0,1.0
5,2,4,2,1,4,31,14,3,4,4,2,1,1.0,0.63,48.28,4.02,1,2.0
5,2,5,2,2,1,46,50,3,5,5,2,1,2.0,0.44,48.72,7.44,0,1.0
5,2,6,2,2,2,11,45,2,3,2,1,1,1.0,0.55,49.27,1.157,1,2.0
5,2,7,2,2,3,7,45,2,5,2,1,1,1.0,0.51,49.78,2.196,1,1.0
5,2,8,2,1,1,52,4,4,3,3,2,1,1.0,0.43,50.21,3.802,1,2.0
5,2,9,2,1,2,1,39,2,3,2,1,1,2.0,0.24,50.45,2.639,0,2.0
5,2,10,2,1,3,51,45,5,2,5,1,1,2.0,0.71,51.16,8.259,0,1.0
5,2,11,2,1,4,9,41,4,5,5,2,1,1.0,0.39,51.55,4.007,1,2.0
5,2,12,2,1,5,46,23,3,2,3,1,1,2.0,0.87,52.42,1.284,0,2.0
5,2,13,2,1,6,32,26,3,5,3,1,1,2.0,0.77,53.19,3.486,0,1.0
5,2,14,2,2,1,43,47,3,2,3,1,1,1.0,0.4,53.59,8.672,1,1.0
5,2,15,2,2,2,7,34,2,3,2,1,1,1.0,0.47,54.06,2.29,1,1.0
5,2,16,2,2,3,52,33,2,5,2,1,1,1.0,0.36,54.42,10.58,1,1.0
5,2,17,2,2,4,7,22,3,4,3,1,1,1.0,0.24,54.66,2.298,1,1.0
5,2,18,2,1,1,5,16,4,2,4,1,1,2.0,0.96,55.62,1.644,0,1.0
5,2,19,2,1,2,22,50,2,5,2,1,1,2.0,0.26,55.88,5.544,0,1.0
5,2,20,2,2,1,25,32,2,3,2,1,1,1.0,0.54,56.42,4.055,1,1.0
5,2,21,2,2,2,41,15,4,2,2,2,1,2.0,0.61,57.03,3.971,0,2.0
5,2,22,2,1,1,4,12,5,3,3,2,1,1.0,0.5,57.53,1.442,1,1.0
5,2,23,2,1,2,52,32,2,3,2,1,1,2.0,0.03,57.56,7.478,0,2.0
5,2,24,2,1,3,5,40,4,3,4,1,1,2.0,0.05,57.61,2.904,0,1.0
5,2,25,2,1,4,54,14,4,5,4,1,1,2.0,0.32,57.93,9.362,0,1.0
5,2,26,2,1,5,9,47,2,4,2,1,1,2.0,0.0,57.93,1.561,0,1.0
5,2,27,2,2,1,24,21,2,4,2,1,1,1.0,0.67,58.6,4.184,1,1.0
5,2,28,2,2,2,47,12,2,4,4,2,1,2.0,0.53,59.13,1.614,0,2.0
5,2,30,2,2,4,35,53,3,2,2,2,1,2.0,0.48,59.97,8.117,0,2.0
5,2,31,2,2,5,6,22,3,4,3,1,1,1.0,0.37,60.34,2.014,1,2.0
5,2,32,2,1,1,41,29,2,3,3,2,1,1.0,0.34,60.68,3.483,1,2.0
5,2,33,2,1,2,3,10,4,3,3,2,1,1.0,0.47,61.15,1.549,1,1.0
5,2,34,2,1,3,36,52,3,4,3,1,1,2.0,0.95,62.1,10.284,0,2.0
5,2,35,2,2,1,22,4,3,5,3,1,1,1.0,0.52,62.62,7.614,1,1.0
5,2,36,2,2,2,26,4,5,2,2,2,1,2.0,0.81,63.43,2.187,0,2.0
5,2,37,2,2,3,44,2,5,4,4,2,1,2.0,0.28,63.71,1.777,0,1.0
5,2,38,2,2,4,16,51,4,3,4,1,1,1.0,0.47,64.18,6.248,1,2.0
5,2,39,2,2,5,40,30,2,4,4,2,1,2.0,0.94,65.12,0.859,0,2.0
5,2,40,2,2,6,34,40,3,5,5,2,1,2.0,0.51,65.63,10.726,0,1.0
5,2,42,2,2,1,36,52,5,4,5,1,1,1.0,0.42,66.05,4.287,1,
5,2,43,2,1,1,40,10,4,5,4,1,1,2.0,0.88,66.93,12.817,0,1.0
5,2,44,2,1,2,12,19,5,3,5,1,1,2.0,0.61,67.54,2.477,0,1.0
5,2,45,2,1,3,3,2,5,3,5,1,1,2.0,0.03,67.57,3.32,0,1.0
5,2,46,2,1,4,31,42,3,4,3,1,1,2.0,1.13,68.7,10.369,0,1.0
5,2,48,2,2,1,21,33,2,4,2,1,1,1.0,0.53,69.23,4.807,1,
5,2,49,2,2,2,20,51,2,4,2,1,1,1.0,0.67,69.9,3.621,1,1.0
5,2,50,2,1,1,4,35,5,4,5,1,1,2.0,1.04,70.94,5.09,0,1.0
5,2,51,2,1,2,52,31,5,4,4,2,1,1.0,0.42,71.36,7.187,1,2.0
5,2,52,2,1,3,12,50,4,3,4,1,1,2.0,0.47,71.83,1.345,0,2.0
5,2,53,2,1,4,38,39,5,3,5,1,1,2.0,0.34,72.17,11.161,0,1.0
5,2,54,2,1,5,31,7,2,5,5,2,1,1.0,0.4,72.57,2.249,1,2.0
5,2,55,2,1,6,31,11,3,5,5,2,1,1.0,0.56,73.13,1.82,1,1.0
5,2,56,2,2,1,24,32,5,4,5,1,1,1.0,0.68,73.81,6.801,1,2.0
5,2,57,2,2,2,14,36,5,4,5,1,1,1.0,0.44,74.25,3.15,1,1.0
5,2,58,2,2,3,19,39,3,2,3,1,1,1.0,0.4,74.65,5.645,1,1.0
5,2,59,2,2,4,28,20,4,5,4,1,1,1.0,0.47,75.12,3.834,1,1.0
5,2,61,2,1,1,21,18,5,2,5,1,1,2.0,0.81,75.93,6.35,0,
5,2,62,2,1,2,37,5,3,2,2,2,1,1.0,0.4,76.33,1.598,1,2.0
5,2,63,2,1,3,38,49,4,2,4,1,1,2.0,0.44,76.77,8.683,0,2.0
5,2,64,2,2,1,35,6,4,2,2,2,1,2.0,0.47,77.24,1.245,0,2.0
5,2,65,2,2,2,17,45,4,3,4,1,1,1.0,0.56,77.8,5.273,1,2.0
5,2,66,2,2,3,23,41,4,2,4,1,1,1.0,0.43,78.23,4.948,1,1.0
5,2,67,2,2,4,35,31,5,3,3,2,1,2.0,0.43,78.66,8.523,0,2.0
5,2,68,2,1,1,43,19,5,4,4,2,1,1.0,0.45,79.11,4.132,1,1.0
5,2,69,2,1,2,10,49,3,5,3,1,1,2.0,0.46,79.57,1.564,0,2.0
5,2,70,2,2,1,45,39,3,4,4,2,1,2.0,1.22,80.79,10.058,0,2.0
5,2,71,2,2,2,41,31,5,2,2,2,1,2.0,0.21,81.0,9.797,0,1.0
5,2,72,2,2,3,43,42,2,4,4,2,1,2.0,0.72,81.72,8.891,0,1.0
5,2,73,2,2,4,51,36,5,3,3,2,1,2.0,0.07,81.79,9.877,0,1.0
5,2,74,2,2,5,46,7,2,5,5,2,1,2.0,0.52,82.31,1.512,0,1.0
5,2,75,2,2,6,32,51,3,2,3,1,1,1.0,0.43,82.74,8.457,1,2.0
5,2,76,2,1,1,29,52,4,5,4,1,1,2.0,0.75,83.49,3.749,0,1.0
5,2,77,2,2,1,4,46,4,2,4,1,1,1.0,0.57,84.06,3.371,1,1.0
5,2,78,2,2,2,29,50,2,5,2,1,1,1.0,0.48,84.54,3.666,1,1.0
5,2,79,2,2,3,36,26,5,2,2,2,1,2.0,0.56,85.1,7.837,0,2.0
5,2,80,2,1,1,25,18,3,4,4,2,1,1.0,0.69,85.79,5.217,1,1.0
5,2,81,2,1,2,31,34,5,2,5,1,1,2.0,0.98,86.77,7.629,0,2.0
5,2,82,2,1,3,8,10,4,5,4,1,1,2.0,0.46,87.23,1.433,0,1.0
5,2,83,2,1,4,36,50,4,5,4,1,1,2.0,0.18,87.41,8.941,0,1.0
5,2,84,2,2,1,32,20,4,3,3,2,1,2.0,0.02,87.43,5.125,0,2.0
5,2,1,3,2,1,6,9,3,2,2,2,1,2.0,0.64,88.07,1.391,0,
5,2,2,3,1,1,11,1,4,5,4,1,1,2.0,0.3,88.37,1.365,0,2.0
5,2,3,3,1,2,33,11,3,5,5,2,1,1.0,0.51,88.88,0.892,1,2.0
5,2,4,3,2,1,54,5,3,5,5,2,1,2.0,0.33,89.21,2.055,0,1.0
5,2,5,3,2,2,19,27,4,3,3,2,1,2.0,0.28,89.49,4.369,0,1.0
5,2,6,3,2,3,43,37,4,3,4,1,1,1.0,0.54,90.03,9.648,1,2.0
5,2,7,3,1,1,12,54,3,5,3,1,1,2.0,0.84,90.87,2.411,0,1.0
5,2,8,3,2,1,41,14,2,3,3,2,1,2.0,1.5,92.37,3.817,0,2.0
5,2,9,3,2,2,41,3,5,2,2,2,1,2.0,0.02,92.39,1.278,0,1.0
5,2,10,3,1,1,47,44,5,2,5,1,1,2.0,0.99,93.38,10.92,0,2.0
5,2,11,3,1,2,47,9,5,4,5,1,1,2.0,0.32,93.7,7.808,0,1.0
5,2,12,3,1,3,24,3,4,3,3,2,1,1.0,0.34,94.04,3.014,1,2.0
5,2,13,3,1,4,44,9,5,3,3,2,1,1.0,0.54,94.58,1.339,1,1.0
5,2,14,3,2,1,25,45,2,3,2,1,1,1.0,0.68,95.26,4.322,1,2.0
5,2,15,3,2,2,9,4,4,5,5,2,1,2.0,0.83,96.09,1.859,0,2.0
5,2,16,3,2,3,13,47,3,4,3,1,1,1.0,0.73,96.82,6.231,1,2.0
5,2,17,3,2,4,36,25,5,3,3,2,1,2.0,0.74,97.56,6.059,0,2.0
5,2,18,3,2,5,32,45,5,4,5,1,1,1.0,0.72,98.28,7.046,1,2.0
5,2,19,3,1,1,39,44,5,2,5,1,1,2.0,0.34,98.62,7.93,0,1.0
5,2,20,3,1,2,18,2,3,2,2,2,1,1.0,0.37,98.99,1.498,1,2.0
5,2,21,3,1,3,44,13,5,3,3,2,1,1.0,0.48,99.47,3.851,1,1.0
5,2,22,3,1,4,11,18,2,5,2,1,1,2.0,1.06,100.53,1.055,0,2.0
5,2,23,3,1,5,13,14,2,5,2,1,1,2.0,0.8,101.33,3.122,0,1.0
5,2,24,3,2,1,43,39,4,5,4,1,1,1.0,0.43,101.76,10.163,1,1.0
5,2,25,3,2,2,16,36,4,2,4,1,1,1.0,0.56,102.32,6.009,1,1.0
5,2,26,3,2,3,42,14,5,2,2,2,1,2.0,0.54,102.86,4.23,0,2.0
5,2,27,3,2,4,19,26,3,4,3,1,1,1.0,0.26,103.12,5.867,1,2.0
5,2,28,3,1,1,11,38,3,2,3,1,1,2.0,0.27,103.39,0.893,0,1.0
5,2,29,3,1,2,30,38,4,2,4,1,1,2.0,0.72,104.11,3.831,0,1.0
5,2,30,3,1,3,22,14,3,4,4,2,1,1.0,0.46,104.57,4.203,1,2.0
5,2,31,3,1,4,52,47,5,3,5,1,1,2.0,1.08,105.65,7.264,0,2.0
5,2,32,3,1,5,42,20,2,5,5,2,1,1.0,0.43,106.08,5.147,1,2.0
5,2,33,3,1,6,46,11,2,4,4,2,1,1.0,0.23,106.31,1.179,1,1.0
5,2,34,3,2,1,33,21,3,2,3,1,1,1.0,0.35,106.66,5.225,1,2.0
5,2,35,3,2,2,28,51,4,2,4,1,1,1.0,0.62,107.28,3.158,1,1.0
5,2,36,3,2,3,14,19,5,4,5,1,1,1.0,0.49,107.77,3.621,1,1.0
5,2,37,3,2,4,3,47,2,3,3,2,1,2.0,0.68,108.45,11.378,0,2.0
5,2,38,3,2,5,51,19,4,3,3,2,1,2.0,0.94,109.39,6.248,0,1.0
5,2,39,3,2,6,15,12,2,5,5,2,1,2.0,0.2,109.59,1.02,0,1.0
5,2,40,3,1,1,54,13,2,4,4,2,1,1.0,0.42,110.01,3.504,1,1.0
5,2,41,3,1,2,2,18,2,5,2,1,1,2.0,0.02,110.03,3.298,0,2.0
5,2,42,3,1,3,51,48,3,5,3,1,1,2.0,0.41,110.44,7.355,0,1.0
5,2,43,3,2,1,12,4,3,4,3,1,1,1.0,0.68,111.12,1.282,1,1.0
5,2,44,3,2,2,47,28,4,5,5,2,1,2.0,0.48,111.6,2.892,0,2.0
5,2,45,3,2,3,26,37,3,5,5,2,1,2.0,1.08,112.68,10.391,0,1.0
5,2,46,3,1,1,3,12,2,5,2,1,1,2.0,0.17,112.85,2.82,0,2.0
5,2,47,3,1,2,33,8,5,4,4,2,1,1.0,0.5,113.35,2.481,1,2.0
5,2,48,3,1,3,30,35,4,2,4,1,1,2.0,0.13,113.48,3.675,0,2.0
5,2,49,3,2,1,8,16,5,3,3,2,1,2.0,0.78,114.26,5.446,0,2.0
5,2,50,3,2,2,29,19,3,4,3,1,1,1.0,0.47,114.73,3.338,1,2.0
5,2,51,3,2,3,27,7,5,4,4,2,1,2.0,0.73,115.46,3.042,0,2.0
5,2,52,3,2,4,27,9,5,4,4,2,1,2.0,0.81,116.27,1.142,0,1.0
5,2,53,3,2,5,23,12,3,2,2,2,1,2.0,0.46,116.73,1.286,0,1.0
5,2,54,3,2,6,22,17,3,2,3,1,1,1.0,0.6,117.33,5.68,1,2.0
5,2,55,3,1,1,7,42,2,4,2,1,1,2.0,1.59,118.92,1.914,0,1.0
5,2,56,3,1,2,8,28,2,3,2,1,1,2.0,0.75,119.67,2.65,0,1.0
5,2,57,3,1,3,26,16,2,4,2,1,1,2.0,0.49,120.16,3.502,0,1.0
5,2,58,3,1,4,22,21,4,5,4,1,1,2.0,0.93,121.09,4.927,0,1.0
5,2,59,3,1,5,3,36,2,4,2,1,1,2.0,0.53,121.62,2.024,0,1.0
5,2,60,3,1,6,5,33,2,4,2,1,1,2.0,0.73,122.35,1.956,0,1.0
5,2,61,3,2,1,13,33,3,5,3,1,1,1.0,0.5,122.85,3.396,1,1.0
5,2,62,3,2,2,50,27,3,4,3,1,1,1.0,0.47,123.32,7.018,1,1.0
5,2,63,3,2,3,19,40,5,2,2,2,1,2.0,1.1,124.42,9.983,0,2.0
5,2,64,3,2,4,42,18,2,3,2,1,1,1.0,0.72,125.14,9.66,1,2.0
5,2,65,3,2,5,51,35,5,3,5,1,1,1.0,0.44,125.58,6.023,1,1.0
5,2,66,3,1,1,20,21,4,2,4,1,1,2.0,0.55,126.13,4.916,0,1.0
5,2,67,3,1,2,39,45,4,5,4,1,1,2.0,0.12,126.25,7.517,0,1.0
5,2,68,3,1,3,30,26,5,3,5,1,1,2.0,0.82,127.07,3.182,0,1.0
5,2,69,3,1,4,8,54,5,4,5,1,1,2.0,0.97,128.04,2.38,0,1.0
5,2,70,3,2,1,38,35,2,5,5,2,1,2.0,0.6,128.64,11.194,0,2.0
5,2,71,3,2,2,41,5,3,2,2,2,1,2.0,0.62,129.26,2.439,0,1.0
5,2,72,3,2,3,46,1,4,5,5,2,1,2.0,1.07,130.33,1.251,0,1.0
5,2,73,3,2,4,31,42,4,3,4,1,1,1.0,0.47,130.8,7.711,1,2.0
5,2,74,3,1,1,25,14,3,4,4,2,1,1.0,0.48,131.28,3.24,1,2.0
5,2,75,3,2,1,38,10,5,2,2,2,1,2.0,0.17,131.45,1.268,0,1.0
5,2,76,3,2,2,1,31,4,3,4,1,1,1.0,0.53,131.98,1.407,1,2.0
5,2,77,3,1,1,21,42,3,5,3,1,1,2.0,0.24,132.22,5.236,0,1.0
5,2,78,3,1,2,27,19,4,3,4,1,1,2.0,1.01,133.23,3.936,0,1.0
5,2,79,3,1,3,29,25,2,3,2,1,1,2.0,0.16,133.39,3.216,0,1.0
5,2,80,3,1,4,2,39,2,4,2,1,1,2.0,0.49,133.88,1.357,0,1.0
5,2,81,3,1,5,19,9,5,2,5,1,1,2.0,0.5,134.38,5.236,0,1.0
5,2,82,3,2,1,3,8,4,2,2,2,1,2.0,0.38,134.76,2.144,0,2.0
5,2,83,3,1,1,23,33,4,2,4,1,1,2.0,0.69,135.45,4.376,0,2.0
5,2,84,3,1,2,52,39,2,3,2,1,1,2.0,0.38,135.83,6.07,0,1.0
6,1,1,1,1,1,18,8,4,2,2,2,1,2.0,0.56,0.56,3.238,1,
6,1,2,1,1,2,4,44,4,3,3,2,1,2.0,0.64,1.2,2.609,1,1.0
6,1,3,1,1,3,26,31,5,2,5,1,1,1.0,0.36,1.56,4.577,0,2.0
6,1,4,1,2,1,51,26,4,2,2,2,1,1.0,0.64,2.2,6.008,0,2.0
6,1,5,1,2,2,49,5,4,5,4,1,1,2.0,1.06,3.26,9.225,1,2.0
6,1,6,1,2,3,7,42,3,4,3,1,1,2.0,0.48,3.74,2.047,1,1.0
6,1,7,1,2,4,3,16,2,4,4,2,1,1.0,0.54,4.28,5.817,0,2.0
6,1,8,1,2,5,25,47,2,5,2,1,1,2.0,0.58,4.86,4.578,1,2.0
6,1,9,1,2,6,37,40,4,3,3,2,1,1.0,0.48,5.34,5.247,0,2.0
6,1,10,1,1,1,17,12,4,2,4,1,1,1.0,0.59,5.93,1.818,0,2.0
6,1,11,1,1,2,2,52,2,4,2,1,1,1.0,0.43,6.36,2.355,0,1.0
6,1,12,1,1,3,22,36,4,2,4,1,1,1.0,0.76,7.12,2.242,0,1.0
6,1,13,1,1,4,35,2,3,2,3,1,1,1.0,0.48,7.6,1.307,0,1.0
6,1,14,1,1,5,30,5,3,4,3,1,1,1.0,0.51,8.11,5.091,0,1.0
6,1,15,1,1,6,29,37,5,2,5,1,1,1.0,0.63,8.74,3.835,0,1.0
6,1,16,1,2,1,42,46,2,5,5,2,1,1.0,0.51,9.25,5.731,0,2.0
6,1,17,1,1,1,25,28,4,5,5,2,1,2.0,0.45,9.7,2.732,1,1.0
6,1,18,1,1,2,41,22,4,2,2,2,1,2.0,0.11,9.81,1.988,1,1.0
6,1,19,1,2,1,9,20,4,5,4,1,1,2.0,0.64,10.45,2.899,1,2.0
6,1,20,1,2,2,20,1,2,3,2,1,1,2.0,0.84,11.29,0.853,1,1.0
6,1,21,1,2,3,19,20,5,4,5,1,1,2.0,1.27,12.56,2.212,1,1.0
6,1,22,1,2,4,28,32,5,4,4,2,1,1.0,0.42,12.98,6.891,0,2.0
6,1,23,1,2,5,35,6,2,4,2,1,1,2.0,0.9,13.88,5.779,1,2.0
6,1,24,1,1,1,7,15,2,4,2,1,1,1.0,0.65,14.53,0.77,0,1.0
6,1,25,1,1,2,7,51,4,3,3,2,1,2.0,0.77,15.3,4.02,1,2.0
6,1,26,1,1,3,28,21,3,5,5,2,1,2.0,0.31,15.61,4.309,1,1.0
6,1,27,1,1,4,4,41,3,2,3,1,1,1.0,0.58,16.19,2.028,0,2.0
6,1,28,1,2,1,47,20,2,5,5,2,1,1.0,0.6,16.79,4.132,0,2.0
6,1,29,1,2,2,15,7,3,5,3,1,1,2.0,0.84,17.63,5.892,1,2.0
6,1,30,1,2,3,26,54,3,2,2,2,1,1.0,0.65,18.28,7.292,0,2.0
6,1,31,1,2,4,54,43,2,5,2,1,1,2.0,0.82,19.1,1.291,1,2.0
6,1,32,1,1,1,20,17,5,2,5,1,1,1.0,0.64,19.74,1.951,0,1.0
6,1,33,1,1,2,18,13,3,2,3,1,1,1.0,0.36,20.1,4.059,0,1.0
6,1,34,1,1,3,27,53,5,2,5,1,1,1.0,0.5,20.6,4.483,0,1.0
6,1,35,1,1,4,53,21,5,3,3,2,1,2.0,0.43,21.03,3.286,1,2.0
6,1,36,1,1,5,52,16,4,3,3,2,1,2.0,0.62,21.65,5.892,1,1.0
6,1,37,1,2,1,46,15,5,3,5,1,1,2.0,0.0,21.65,2.04,1,2.0
6,1,38,1,2,2,10,5,5,3,3,2,1,1.0,0.67,22.32,1.905,0,2.0
6,1,39,1,2,3,31,38,3,4,3,1,1,2.0,0.12,22.44,1.482,1,2.0
6,1,41,1,2,1,9,36,3,4,4,2,1,1.0,0.56,23.0,4.497,0,
6,1,42,1,2,2,51,18,3,5,3,1,1,2.0,0.6,23.6,3.404,1,2.0
6,1,43,1,1,1,32,50,5,2,5,1,1,1.0,0.39,23.99,2.172,0,1.0
6,1,44,1,1,2,47,12,2,3,3,2,1,2.0,0.47,24.46,3.037,1,2.0
6,1,45,1,1,3,16,1,3,2,3,1,1,1.0,0.38,24.84,4.102,0,2.0
6,1,46,1,1,4,31,10,3,5,5,2,1,2.0,0.79,25.63,6.516,1,2.0
6,1,47,1,2,1,32,9,2,3,3,2,1,1.0,0.56,26.19,2.338,0,1.0
6,1,49,1,2,3,25,26,3,2,3,1,1,2.0,1.3,27.49,1.37,1,
6,1,50,1,2,4,36,35,4,3,3,2,1,1.0,0.57,28.06,3.931,0,2.0
6,1,51,1,1,1,44,18,2,4,4,2,1,2.0,0.2,28.26,2.252,1,1.0
6,1,52,1,1,2,19,54,2,3,3,2,1,2.0,0.68,28.94,2.349,1,1.0
6,1,53,1,1,3,19,21,5,3,3,2,1,2.0,0.02,28.96,2.781,1,1.0
6,1,54,1,1,4,50,10,5,2,5,1,1,1.0,0.5,29.46,5.223,0,2.0
6,1,55,1,1,5,39,51,5,3,5,1,1,1.0,0.49,29.95,9.148,0,1.0
6,1,56,1,1,6,7,26,2,3,3,2,1,2.0,0.5,30.45,3.643,1,2.0
6,1,57,1,2,1,17,25,5,4,5,1,1,2.0,0.35,30.8,5.012,1,2.0
6,1,58,1,2,2,37,42,2,5,2,1,1,2.0,1.02,31.82,3.052,1,1.0
6,1,59,1,1,1,10,18,2,4,4,2,1,2.0,0.7,32.52,3.979,1,2.0
6,1,60,1,1,2,18,30,3,2,2,2,1,2.0,0.92,33.44,3.22,1,1.0
6,1,61,1,2,1,4,47,4,3,3,2,1,1.0,0.59,34.03,1.822,0,1.0
6,1,62,1,2,2,17,4,4,5,5,2,1,1.0,0.57,34.6,1.292,0,1.0
6,1,64,1,2,4,14,51,3,4,3,1,1,2.0,0.82,35.94,3.635,1,1.0
6,1,65,1,2,5,12,25,4,5,5,2,1,1.0,0.57,36.51,2.071,0,2.0
6,1,66,1,1,1,15,49,4,3,4,1,1,1.0,0.47,36.98,3.955,0,2.0
6,1,67,1,2,1,25,1,4,2,2,2,1,1.0,0.46,37.44,3.924,0,2.0
6,1,68,1,2,2,50,29,3,4,4,2,1,1.0,0.47,37.91,6.484,0,1.0
6,1,69,1,2,3,39,10,2,3,3,2,1,1.0,0.33,38.24,1.339,0,1.0
6,1,70,1,1,1,3,39,4,5,5,2,1,2.0,0.39,38.63,2.599,1,1.0
6,1,71,1,1,2,9,10,2,3,3,2,1,2.0,0.56,39.19,2.804,1,1.0
6,1,72,1,1,3,10,9,5,4,4,2,1,2.0,0.65,39.84,1.185,1,1.0
6,1,73,1,2,1,4,3,2,5,5,2,1,1.0,0.67,40.51,3.554,0,1.0
6,1,74,1,1,1,26,28,3,5,5,2,1,2.0,0.33,40.84,1.172,1,1.0
6,1,75,1,1,2,31,41,5,4,5,1,1,1.0,0.57,41.41,3.109,0,2.0
6,1,76,1,1,3,22,43,5,3,5,1,1,1.0,0.59,42.0,2.62,0,1.0
6,1,77,1,1,4,16,45,5,4,4,2,1,2.0,0.94,42.94,5.748,1,2.0
6,1,78,1,1,5,52,2,5,3,3,2,1,2.0,0.03,42.97,1.667,1,1.0
6,1,79,1,2,1,29,34,2,5,5,2,1,1.0,0.52,43.49,5.291,0,1.0
6,1,80,1,2,2,50,28,3,5,5,2,1,1.0,0.53,44.02,3.649,0,1.0
6,1,81,1,2,3,7,1,3,4,3,1,1,2.0,0.03,44.05,2.434,1,2.0
6,1,82,1,2,4,51,9,4,2,2,2,1,1.0,0.41,44.46,2.851,0,2.0
6,1,83,1,2,5,12,4,5,4,4,2,1,1.0,0.63,45.09,2.522,0,1.0
6,1,84,1,2,6,53,48,4,5,4,1,1,2.0,0.44,45.53,7.547,1,2.0
6,1,1,2,1,1,2,18,5,3,5,1,1,1.0,0.55,46.08,7.305,0,
6,1,2,2,1,2,31,45,5,2,2,2,1,2.0,0.54,46.62,7.741,1,2.0
6,1,3,2,1,3,54,15,4,3,4,1,1,1.0,0.43,47.05,1.924,0,2.0
6,1,4,2,1,4,19,6,4,5,4,1,1,1.0,0.43,47.48,0.827,0,1.0
6,1,5,2,1,5,28,33,2,5,5,2,1,2.0,0.71,48.19,3.02,1,2.0
6,1,7,2,2,1,19,32,3,2,3,1,1,2.0,0.05,48.24,0.869,1,
6,1,8,2,2,2,38,42,3,5,3,1,1,2.0,0.87,49.11,1.136,1,1.0
6,1,9,2,2,3,43,31,2,5,2,1,1,2.0,0.77,49.88,1.326,1,1.0
6,1,10,2,2,4,23,14,5,2,5,1,1,2.0,0.11,49.99,1.796,1,1.0
6,1,11,2,1,1,30,16,4,2,2,2,1,2.0,0.37,50.36,0.945,1,2.0
6,1,12,2,1,2,43,45,4,3,3,2,1,2.0,0.96,51.32,2.153,1,1.0
6,1,13,2,1,3,34,53,5,2,5,1,1,1.0,0.44,51.76,9.275,0,2.0
6,1,14,2,1,4,32,12,4,3,3,2,1,2.0,0.65,52.41,8.892,1,2.0
6,1,15,2,1,5,3,49,5,4,4,2,1,2.0,0.61,53.02,3.58,1,1.0
6,1,16,2,2,1,47,11,5,4,5,1,1,2.0,0.51,53.53,8.66,1,2.0
6,1,17,2,2,2,15,48,2,3,2,1,1,2.0,0.03,53.56,1.621,1,1.0
6,1,18,2,2,3,29,10,2,4,2,1,1,2.0,0.05,53.61,1.94,1,1.0
6,1,19,2,2,4,46,15,3,5,3,1,1,2.0,0.32,53.93,3.131,1,1.0
6,1,20,2,2,5,54,12,2,3,2,1,1,2.0,0.0,53.93,3.821,1,1.0
6,1,21,2,1,1,2,16,5,3,3,2,1,2.0,1.19,55.12,1.668,1,2.0
6,1,22,2,2,1,4,27,3,2,3,1,1,2.0,0.53,55.65,3.228,1,2.0
6,1,23,2,2,2,5,19,4,2,2,2,1,1.0,0.36,56.01,6.128,0,2.0
6,1,24,2,1,1,43,34,4,2,2,2,1,2.0,0.48,56.49,7.468,1,1.0
6,1,25,2,1,2,29,35,5,3,5,1,1,1.0,0.37,56.86,4.73,0,2.0
6,1,26,2,1,3,14,30,4,5,5,2,1,2.0,0.38,57.24,2.83,1,2.0
6,1,27,2,2,1,44,25,2,5,2,1,1,2.0,0.95,58.19,2.244,1,2.0
6,1,28,2,2,2,43,45,4,5,5,2,1,1.0,0.52,58.71,3.54,0,2.0
6,1,29,2,2,3,40,44,4,3,3,2,1,1.0,0.58,59.29,5.861,0,1.0
6,1,30,2,1,1,53,44,3,2,2,2,1,2.0,0.28,59.57,6.172,1,1.0
6,1,31,2,1,2,53,34,5,4,4,2,1,2.0,0.38,59.95,6.181,1,1.0
6,1,32,2,2,1,10,15,5,2,2,2,1,1.0,0.36,60.31,1.235,0,1.0
6,1,33,2,2,2,29,8,5,2,2,2,1,1.0,0.34,60.65,1.692,0,1.0
6,1,34,2,2,3,39,2,2,3,2,1,1,2.0,0.94,61.59,1.564,1,2.0
6,1,35,2,2,4,45,50,2,5,5,2,1,1.0,0.5,62.09,7.971,0,2.0
6,1,36,2,2,5,41,12,3,2,3,1,1,2.0,0.2,62.29,2.931,1,2.0
6,1,37,2,2,6,36,19,3,5,3,1,1,2.0,0.88,63.17,6.675,1,1.0
6,1,38,2,1,1,50,31,3,4,3,1,1,1.0,0.53,63.7,4.17,0,1.0
6,1,39,2,1,2,23,22,5,4,4,2,1,2.0,0.03,63.73,2.804,1,2.0
6,1,40,2,1,3,53,41,5,3,5,1,1,1.0,0.66,64.39,3.413,0,2.0
6,1,41,2,1,4,6,20,2,4,2,1,1,1.0,0.53,64.92,3.012,0,1.0
6,1,42,2,2,1,20,9,2,3,3,2,1,1.0,0.67,65.59,1.084,0,2.0
6,1,44,2,1,2,46,19,2,3,2,1,1,1.0,0.63,66.22,0.991,0,
6,1,45,2,2,1,38,12,5,3,5,1,1,2.0,0.18,66.4,2.178,1,1.0
6,1,46,2,2,2,48,29,2,4,2,1,1,2.0,0.47,66.87,3.399,1,1.0
6,1,47,2,1,1,25,27,4,2,4,1,1,1.0,0.46,67.33,2.188,0,1.0
6,1,48,2,1,2,6,15,2,4,2,1,1,1.0,0.4,67.73,3.829,0,1.0
6,1,49,2,1,3,26,49,5,2,5,1,1,1.0,0.56,68.29,8.643,0,1.0
6,1,51,2,1,5,50,16,2,4,2,1,1,1.0,0.44,69.41,1.351,0,1.0
6,1,52,2,1,6,15,45,2,3,2,1,1,1.0,0.4,69.81,3.723,0,1.0
6,1,53,2,2,1,27,32,3,2,3,1,1,2.0,0.38,70.19,1.276,1,1.0
6,1,54,2,1,1,4,2,5,4,4,2,1,2.0,0.81,71.0,4.709,1,2.0
6,1,55,2,1,2,42,10,4,5,5,2,1,2.0,0.1,71.1,4.028,1,1.0
6,1,56,2,1,3,49,40,5,4,4,2,1,2.0,0.44,71.54,3.403,1,1.0
6,1,57,2,1,4,32,35,4,5,5,2,1,2.0,0.47,72.01,1.875,1,1.0
6,1,58,2,2,1,32,13,2,3,3,2,1,1.0,0.56,72.57,3.867,0,1.0
6,1,59,2,2,2,50,18,3,2,2,2,1,1.0,0.43,73.0,2.78,0,1.0
6,1,60,2,2,3,41,9,4,3,3,2,1,1.0,0.48,73.48,0.979,0,1.0
6,1,61,2,1,1,2,9,3,4,4,2,1,2.0,0.3,73.78,1.185,1,1.0
6,1,62,2,1,2,46,6,4,3,3,2,1,2.0,0.46,74.24,1.827,1,1.0
6,1,63,2,1,3,25,42,4,3,3,2,1,2.0,1.22,75.46,3.561,1,1.0
6,1,64,2,1,4,45,37,5,3,3,2,1,2.0,0.21,75.67,2.901,1,1.0
6,1,65,2,1,5,29,14,3,4,4,2,1,2.0,0.72,76.39,2.316,1,1.0
6,1,66,2,2,1,40,18,3,4,3,1,1,2.0,0.07,76.46,6.853,1,2.0
6,1,67,2,2,2,20,4,5,2,2,2,1,1.0,0.5,76.96,3.339,0,2.0
6,1,68,2,2,3,4,21,3,2,2,2,1,1.0,0.43,77.39,1.308,0,1.0
6,1,69,2,2,4,9,51,3,4,4,2,1,1.0,0.56,77.95,6.508,0,1.0
6,1,70,2,2,5,22,37,3,5,5,2,1,1.0,0.57,78.52,1.293,0,1.0
6,1,71,2,1,1,7,2,3,5,3,1,1,1.0,0.48,79.0,1.595,0,2.0
6,1,72,2,1,2,18,31,2,5,2,1,1,1.0,0.26,79.26,1.356,0,1.0
6,1,73,2,1,3,25,17,3,4,3,1,1,1.0,0.52,79.78,3.881,0,1.0
6,1,74,2,2,1,50,51,4,5,5,2,1,1.0,0.69,80.47,4.171,0,2.0
6,1,75,2,2,2,40,14,2,5,5,2,1,1.0,0.62,81.09,2.602,0,1.0
6,1,76,2,2,3,19,22,3,5,5,2,1,1.0,0.31,81.4,0.86,0,1.0
6,1,77,2,2,4,33,43,2,4,2,1,1,2.0,0.46,81.86,1.489,1,2.0
6,1,78,2,2,5,24,2,2,5,5,2,1,1.0,0.42,82.28,3.036,0,2.0
6,1,79,2,2,6,51,40,5,4,4,2,1,1.0,0.38,82.66,5.866,0,1.0
6,1,80,2,1,1,35,43,4,2,2,2,1,2.0,0.64,83.3,3.326,1,1.0
6,1,81,2,2,1,33,50,3,4,4,2,1,1.0,0.45,83.75,5.467,0,1.0
6,1,82,2,2,2,21,10,3,5,3,1,1,2.0,0.53,84.28,3.644,1,2.0
6,1,83,2,2,3,18,27,4,5,5,2,1,1.0,0.46,84.74,1.088,0,2.0
6,1,84,2,2,4,29,17,5,3,3,2,1,1.0,0.45,85.19,1.083,0,1.0
6,1,1,3,1,1,48,12,3,5,3,1,1,1.0,0.54,85.73,3.25,0,
6,1,2,3,1,2,37,22,5,2,5,1,1,1.0,0.59,86.32,1.565,0,1.0
6,1,3,3,1,3,46,4,5,2,2,2,1,2.0,1.5,87.82,6.396,1,2.0
6,1,4,3,1,4,10,42,5,4,5,1,1,1.0,0.34,88.16,2.677,0,2.0
6,1,5,3,2,1,18,19,3,5,3,1,1,2.0,0.02,88.18,1.683,1,1.0
6,1,6,3,2,2,39,29,3,4,3,1,1,2.0,0.99,89.17,1.051,1,1.0
6,1,7,3,2,3,17,48,5,2,5,1,1,2.0,0.32,89.49,2.172,1,1.0
6,1,8,3,2,4,31,39,3,2,3,1,1,2.0,0.65,90.14,1.069,1,1.0
6,1,9,3,2,5,25,32,5,3,5,1,1,2.0,1.23,91.37,3.015,1,1.0
6,1,10,3,1,1,47,10,4,3,4,1,1,1.0,0.58,91.95,1.884,0,1.0
6,1,11,3,1,2,42,47,3,4,3,1,1,1.0,0.73,92.68,2.767,0,1.0
6,1,12,3,1,3,53,2,3,4,3,1,1,1.0,0.56,93.24,5.282,0,1.0
6,1,13,3,2,1,6,32,2,5,2,1,1,2.0,1.38,94.62,0.844,1,1.0
6,1,14,3,1,1,37,54,4,2,4,1,1,1.0,0.46,95.08,4.531,0,1.0
6,1,15,3,1,2,15,45,4,3,4,1,1,1.0,0.37,95.45,1.499,0,1.0
6,1,16,3,2,1,1,14,5,3,5,1,1,2.0,0.4,95.85,3.036,1,1.0
6,1,17,3,2,2,17,12,3,4,4,2,1,1.0,0.64,96.49,1.788,0,2.0
6,1,18,3,2,3,21,5,2,4,4,2,1,1.0,0.37,96.86,4.051,0,1.0
6,1,19,3,1,1,21,45,2,4,2,1,1,1.0,0.57,97.43,4.764,0,2.0
6,1,20,3,1,2,8,28,5,4,5,1,1,1.0,0.43,97.86,3.932,0,1.0
6,1,21,3,1,3,34,38,5,4,5,1,1,1.0,0.56,98.42,3.876,0,1.0
6,1,22,3,1,4,29,46,4,2,4,1,1,1.0,0.37,98.79,1.844,0,1.0
6,1,23,3,1,5,20,7,5,2,5,1,1,1.0,0.51,99.3,0.943,0,1.0
6,1,24,3,2,1,12,40,2,4,2,1,1,2.0,0.27,99.57,2.388,1,1.0
6,1,25,3,2,2,48,27,3,2,2,2,1,1.0,0.55,100.12,1.835,0,2.0
6,1,26,3,1,1,51,21,4,3,3,2,1,2.0,0.35,100.47,4.182,1,1.0
6,1,27,3,1,2,51,13,3,5,3,1,1,1.0,0.65,101.12,2.599,0,2.0
6,1,29,3,1,4,27,25,5,3,3,2,1,2.0,1.0,102.32,8.333,1,1.0
6,1,30,3,1,5,7,21,4,2,4,1,1,1.0,0.49,102.81,1.411,0,2.0
6,1,31,3,1,6,12,19,4,5,5,2,1,2.0,0.68,103.49,4.206,1,2.0
6,1,33,3,2,2,19,42,2,5,2,1,1,2.0,0.2,104.63,0.931,1,1.0
6,1,34,3,2,3,4,34,4,5,4,1,1,2.0,0.17,104.8,2.827,1,1.0
6,1,35,3,2,4,7,54,4,2,4,1,1,2.0,0.02,104.82,2.531,1,1.0
6,1,36,3,1,1,35,18,5,4,4,2,1,2.0,0.41,105.23,2.036,1,2.0
6,1,37,3,2,1,29,12,4,5,5,2,1,1.0,0.68,105.91,1.211,0,1.0
6,1,38,3,2,2,21,19,5,2,2,2,1,1.0,0.5,106.41,1.171,0,1.0
6,1,39,3,2,3,50,4,5,4,4,2,1,1.0,0.64,107.05,1.268,0,1.0
6,1,40,3,2,4,19,9,4,2,2,2,1,1.0,0.42,107.47,0.619,0,1.0
6,1,41,3,2,5,26,21,2,3,3,2,1,1.0,0.5,107.97,2.506,0,1.0
6,1,42,3,2,6,28,37,3,2,2,2,1,1.0,0.41,108.38,4.101,0,1.0
6,1,43,3,1,1,46,18,3,5,5,2,1,2.0,0.78,109.16,1.49,1,1.0
6,1,44,3,2,1,26,25,4,5,4,1,1,2.0,0.38,109.54,2.476,1,2.0
6,1,45,3,2,2,38,36,3,4,3,1,1,2.0,0.73,110.27,6.73,1,1.0
6,1,46,3,2,3,35,6,2,5,5,2,1,1.0,0.58,110.85,0.98,0,2.0
6,1,47,3,2,4,32,14,4,2,2,2,1,1.0,0.49,111.34,4.53,0,1.0
6,1,48,3,2,5,11,22,2,5,5,2,1,1.0,0.6,111.94,1.901,0,1.0
6,1,49,3,2,6,18,28,4,5,5,2,1,1.0,0.77,112.71,1.79,0,1.0
6,1,50,3,1,1,54,11,5,3,3,2,1,2.0,0.75,113.46,2.885,1,1.0
6,1,51,3,1,2,29,13,5,3,3,2,1,2.0,0.49,113.95,2.718,1,1.0
6,1,52,3,1,3,32,20,3,4,4,2,1,2.0,0.93,114.88,2.424,1,1.0
6,1,53,3,1,4,18,4,3,4,4,2,1,2.0,0.53,115.41,0.844,1,1.0
6,1,54,3,1,5,29,7,2,5,5,2,1,2.0,0.73,116.14,1.333,1,1.0
6,1,55,3,2,1,36,31,5,2,2,2,1,1.0,0.5,116.64,1.387,0,1.0
6,1,56,3,1,1,42,28,2,3,3,2,1,2.0,0.37,117.01,2.454,1,1.0
6,1,57,3,1,2,39,50,5,4,5,1,1,1.0,0.65,117.66,6.445,0,2.0
6,1,58,3,1,3,23,54,2,4,2,1,1,1.0,0.72,118.38,2.29,0,1.0
6,1,59,3,2,1,44,21,4,5,4,1,1,2.0,0.25,118.63,1.555,1,1.0
6,1,60,3,2,2,16,43,5,4,5,1,1,2.0,0.55,119.18,0.978,1,1.0
6,1,61,3,2,3,9,28,5,2,5,1,1,2.0,0.12,119.3,1.559,1,1.0
6,1,62,3,2,4,46,31,3,5,3,1,1,2.0,0.82,120.12,2.434,1,1.0
6,1,63,3,2,5,51,47,2,3,2,1,1,2.0,0.97,121.09,3.036,1,1.0
6,1,64,3,1,1,30,34,3,5,3,1,1,1.0,0.53,121.62,2.877,0,1.0
6,1,65,3,1,2,5,47,2,5,2,1,1,1.0,0.53,122.15,1.601,0,1.0
6,1,66,3,1,3,30,18,2,4,4,2,1,2.0,1.07,123.22,2.5,1,2.0
6,1,67,3,1,4,46,1,3,2,2,2,1,2.0,0.37,123.59,4.839,1,1.0
6,1,68,3,2,1,26,24,2,3,3,2,1,1.0,0.48,124.07,2.011,0,1.0
6,1,69,3,2,2,23,19,2,4,2,1,1,2.0,0.17,124.24,2.926,1,2.0
6,1,70,3,1,1,15,20,2,5,2,1,1,1.0,0.53,124.77,2.049,0,1.0
6,1,71,3,1,2,4,53,2,4,2,1,1,1.0,0.44,125.21,0.771,0,1.0
6,1,72,3,2,1,12,44,3,2,2,2,1,1.0,0.34,125.55,3.847,0,2.0
6,1,73,3,2,2,26,47,4,2,4,1,1,2.0,1.01,126.56,1.332,1,2.0
6,1,74,3,2,3,29,2,2,3,2,1,1,2.0,0.16,126.72,2.501,1,1.0
6,1,75,3,2,4,45,8,4,3,4,1,1,2.0,0.49,127.21,1.693,1,1.0
6,1,76,3,1,1,22,15,2,3,2,1,1,1.0,0.5,127.71,2.878,0,1.0
6,1,77,3,1,2,50,29,3,5,3,1,1,1.0,0.47,128.18,2.291,0,1.0
6,1,78,3,1,3,39,52,5,3,5,1,1,1.0,0.55,128.73,0.676,0,1.0
6,1,79,3,1,4,37,42,2,3,2,1,1,1.0,0.47,129.2,1.627,0,1.0
6,1,80,3,1,5,41,5,5,3,3,2,1,2.0,0.02,129.22,1.93,1,2.0
6,1,81,3,1,6,23,22,4,5,4,1,1,1.0,0.53,129.75,3.437,0,2.0
6,1,82,3,2,1,40,52,4,3,3,2,1,1.0,0.35,130.1,5.097,0,2.0
6,1,83,3,2,2,52,5,4,3,4,1,1,2.0,0.34,130.44,1.787,1,2.0
6,1,84,3,2,3,44,11,3,2,3,1,1,2.0,0.06,130.5,0.98,1,1.0
6,1,1,4,1,1,27,28,3,4,4,2,1,2.0,0.02,130.52,4.948,1,
6,1,2,4,1,2,54,15,4,3,3,2,1,2.0,0.31,130.83,5.269,1,1.0
6,1,3,4,1,3,13,6,3,5,3,1,1,1.0,0.52,131.35,3.699,0,2.0
6,1,4,4,2,1,28,50,5,2,2,2,1,1.0,0.49,131.84,5.95,0,2.0
6,1,5,4,2,2,28,35,5,4,4,2,1,1.0,0.63,132.47,3.814,0,1.0
6,1,6,4,2,3,7,42,4,5,4,1,1,2.0,0.38,132.85,1.189,1,2.0
6,1,7,4,2,4,33,1,4,3,4,1,1,2.0,0.5,133.35,3.508,1,1.0
6,1,8,4,2,5,36,40,5,3,5,1,1,2.0,0.53,133.88,2.046,1,1.0
6,1,9,4,2,6,7,48,4,2,4,1,1,2.0,0.65,134.53,1.275,1,1.0
6,1,10,4,1,1,17,36,4,3,4,1,1,1.0,0.56,135.09,1.075,0,1.0
6,1,11,4,1,2,45,23,5,3,3,2,1,2.0,1.1,136.19,6.099,1,2.0
6,1,12,4,1,3,46,22,3,4,3,1,1,1.0,0.44,136.63,1.739,0,2.0
6,1,13,4,1,4,37,29,3,2,3,1,1,1.0,0.53,137.16,5.445,0,1.0
6,1,14,4,1,5,24,36,5,4,5,1,1,1.0,0.5,137.66,1.131,0,1.0
6,1,15,4,1,6,26,32,2,5,2,1,1,1.0,0.43,138.09,2.33,0,1.0
6,1,16,4,2,1,9,47,5,3,5,1,1,2.0,1.51,139.6,1.475,1,1.0
6,1,17,4,1,1,1,52,2,5,2,1,1,1.0,0.47,140.07,3.3,0,1.0
6,1,18,4,1,2,12,53,4,2,4,1,1,1.0,0.33,140.4,1.338,0,1.0
6,1,19,4,2,1,35,40,4,2,2,2,1,1.0,0.71,141.11,4.723,0,2.0
6,1,20,4,2,2,31,38,4,5,5,2,1,1.0,0.54,141.65,0.916,0,1.0
6,1,21,4,2,3,49,25,3,4,4,2,1,1.0,0.37,142.02,3.458,0,1.0
6,1,22,4,2,4,29,8,5,4,4,2,1,1.0,0.57,142.59,2.165,0,1.0
6,1,23,4,2,5,54,42,3,4,3,1,1,2.0,1.1,143.69,3.283,1,2.0
6,1,24,4,1,1,44,50,2,5,2,1,1,1.0,0.39,144.08,0.994,0,1.0
6,1,25,4,1,2,45,33,2,4,2,1,1,1.0,0.52,144.6,4.402,0,1.0
6,1,26,4,1,3,46,1,3,5,3,1,1,1.0,0.48,145.08,1.635,0,1.0
6,1,27,4,1,4,34,10,5,4,5,1,1,1.0,0.36,145.44,3.899,0,1.0
6,1,28,4,2,1,53,43,2,3,2,1,1,2.0,1.06,146.5,2.427,1,1.0
6,1,29,4,2,2,20,18,2,3,2,1,1,2.0,0.49,146.99,1.795,1,1.0
6,1,30,4,2,3,35,36,5,2,5,1,1,2.0,0.75,147.74,2.1,1,1.0
6,1,31,4,2,4,16,53,3,5,3,1,1,2.0,0.16,147.9,2.021,1,1.0
6,1,32,4,1,1,33,31,3,5,5,2,1,2.0,0.19,148.09,7.482,1,2.0
6,1,33,4,1,2,37,29,4,3,4,1,1,1.0,0.54,148.63,2.565,0,2.0
6,1,34,4,1,3,26,45,2,3,3,2,1,2.0,0.55,149.18,2.43,1,2.0
6,1,35,4,1,4,10,31,3,2,2,2,1,2.0,1.37,150.55,1.127,1,1.0
6,1,36,4,1,5,19,53,2,5,2,1,1,1.0,0.47,151.02,3.268,0,2.0
6,1,37,4,2,1,5,51,4,2,2,2,1,1.0,0.76,151.78,3.82,0,2.0
6,1,38,4,2,2,34,37,2,4,2,1,1,2.0,1.21,152.99,1.756,1,2.0
6,1,39,4,2,3,46,1,5,2,2,2,1,1.0,0.27,153.26,0.924,0,2.0
6,1,40,4,1,1,33,15,5,4,5,1,1,1.0,0.3,153.56,3.675,0,2.0
6,1,41,4,2,1,2,7,2,4,4,2,1,1.0,0.43,153.99,5.416,0,2.0
6,1,42,4,2,2,45,12,2,5,5,2,1,1.0,0.48,154.47,3.189,0,1.0
6,1,44,4,1,2,34,5,2,5,5,2,1,2.0,0.5,154.97,3.541,1,
6,1,45,4,1,3,27,47,4,2,4,1,1,1.0,0.6,155.57,5.451,0,2.0
6,1,46,4,1,4,26,12,4,3,3,2,1,2.0,0.16,155.73,4.572,1,2.0
6,1,47,4,2,1,3,26,5,2,2,2,1,1.0,0.41,156.14,1.399,0,1.0
6,1,48,4,2,2,3,2,2,4,4,2,1,1.0,0.48,156.62,1.692,0,1.0
6,1,49,4,2,3,3,38,4,3,4,1,1,2.0,0.49,157.11,2.876,1,2.0
6,1,50,4,2,4,39,52,4,3,4,1,1,2.0,0.63,157.74,2.029,1,1.0
6,1,51,4,1,1,18,51,3,2,2,2,1,2.0,1.0,158.74,1.869,1,2.0
6,1,52,4,1,2,31,11,4,5,5,2,1,2.0,0.79,159.53,3.079,1,1.0
6,1,53,4,1,3,45,40,3,2,2,2,1,2.0,0.83,160.36,3.276,1,1.0
6,1,54,4,1,4,22,6,2,4,4,2,1,2.0,0.88,161.24,1.388,1,1.0
6,1,55,4,1,5,46,40,4,5,5,2,1,2.0,0.8,162.04,2.629,1,1.0
6,1,56,4,1,6,13,33,3,5,3,1,1,1.0,0.65,162.69,3.045,0,2.0
6,1,57,4,2,1,3,27,4,2,2,2,1,1.0,0.54,163.23,4.468,0,2.0
6,1,58,4,2,2,47,34,5,4,4,2,1,1.0,0.42,163.65,2.861,0,1.0
6,1,59,4,1,1,11,39,2,3,2,1,1,1.0,0.48,164.13,0.789,0,2.0
6,1,60,4,1,2,10,32,2,4,2,1,1,1.0,0.21,164.34,1.084,0,1.0
6,1,61,4,2,1,9,54,5,3,3,2,1,1.0,0.56,164.9,5.697,0,2.0
6,1,62,4,2,2,52,29,3,4,3,1,1,2.0,0.56,165.46,7.07,1,2.0
6,1,63,4,2,3,18,22,4,2,4,1,1,2.0,0.22,165.68,0.843,1,1.0
6,1,64,4,2,4,16,11,5,2,2,2,1,1.0,0.42,166.1,3.292,0,2.0
6,1,65,4,2,5,16,4,3,2,3,1,1,2.0,0.48,166.58,4.334,1,2.0
6,1,66,4,1,1,40,29,5,2,5,1,1,1.0,0.54,167.12,5.612,0,1.0
6,1,67,4,2,1,42,47,2,3,3,2,1,1.0,0.46,167.58,4.811,0,2.0
6,1,68,4,2,2,7,33,2,4,2,1,1,2.0,0.26,167.84,2.102,1,2.0
6,1,69,4,2,3,22,42,5,2,2,2,1,1.0,0.5,168.34,2.452,0,2.0
6,1,70,4,1,1,2,26,4,5,4,1,1,1.0,0.48,168.82,6.772,0,2.0
6,1,72,4,1,3,1,9,4,5,4,1,1,1.0,0.39,169.21,2.795,0,
6,1,73,4,2,1,29,46,3,4,4,2,1,1.0,0.65,169.86,1.701,0,2.0
6,1,74,4,1,1,40,28,2,3,2,1,1,1.0,0.55,170.41,4.188,0,2.0
6,1,75,4,1,2,7,30,3,5,3,1,1,1.0,0.65,171.06,1.717,0,1.0
6,1,76,4,1,3,48,25,3,5,3,1,1,1.0,0.44,171.5,1.298,0,1.0
6,1,77,4,1,4,32,30,5,4,4,2,1,2.0,0.88,172.38,2.326,1,2.0
6,1,78,4,1,5,33,7,5,3,3,2,1,2.0,0.52,172.9,5.651,1,1.0
6,1,79,4,2,1,45,6,2,3,3,2,1,1.0,0.41,173.31,0.717,0,1.0
6,1,80,4,2,2,34,17,5,3,3,2,1,1.0,0.49,173.8,5.113,0,1.0
6,1,81,4,2,3,42,14,3,2,2,2,1,1.0,0.26,174.06,4.1,0,1.0
6,1,82,4,2,4,11,45,5,3,3,2,1,1.0,0.63,174.69,2.956,0,1.0
6,1,83,4,2,5,10,46,4,5,4,1,1,2.0,0.04,174.73,3.883,1,2.0
6,1,84,4,2,6,21,11,2,5,5,2,1,1.0,0.42,175.15,2.124,0,2.0
7,2,1,1,1,1,21,22,3,2,2,2,1,1.0,0.59,0.59,10.327,1,
7,2,2,1,1,2,32,11,5,4,5,1,1,2.0,0.13,0.72,6.734,0,2.0
7,2,3,1,1,3,40,47,2,5,5,2,1,1.0,0.35,1.07,5.919,1,2.0
7,2,4,1,2,1,2,32,4,5,5,2,1,2.0,0.81,1.88,4.658,0,1.0
7,2,6,1,1,1,16,48,4,5,4,1,1,2.0,0.21,2.09,9.204,0,
7,2,7,1,2,1,21,23,4,3,3,2,1,2.0,0.76,2.85,17.534,0,2.0
7,2,9,1,1,2,29,12,4,2,4,1,1,2.0,0.08,3.3,10.61,0,1.0
7,2,10,1,2,1,30,9,4,5,5,2,1,2.0,0.04,3.34,4.901,0,2.0
7,2,11,1,2,2,41,28,4,3,3,2,1,2.0,0.47,3.81,6.771,0,1.0
7,2,12,1,2,3,1,39,3,4,3,1,1,1.0,0.22,4.03,14.595,1,2.0
7,2,14,1,2,5,17,2,4,2,4,1,1,1.0,0.34,4.54,12.133,1,2.0
7,2,15,1,2,6,3,50,2,5,5,2,1,2.0,0.66,5.2,3.282,0,2.0
7,2,16,1,1,1,27,12,5,2,2,2,1,1.0,0.57,5.77,10.18,1,1.0
7,2,17,1,1,2,51,37,4,3,4,1,1,2.0,0.57,6.34,2.803,0,2.0
7,2,18,1,1,3,19,33,2,5,5,2,1,1.0,0.49,6.83,3.027,1,2.0
7,2,19,1,1,4,47,48,4,5,4,1,1,2.0,0.51,7.34,4.468,0,2.0
7,2,20,1,1,5,17,48,5,4,4,2,1,1.0,0.4,7.74,2.434,1,2.0
7,2,21,1,2,1,17,30,4,3,3,2,1,2.0,0.37,8.11,7.86,0,1.0
7,2,22,1,2,2,22,40,3,5,3,1,1,1.0,0.46,8.57,8.596,1,2.0
7,2,23,1,2,3,42,2,4,5,5,2,1,2.0,0.77,9.34,12.866,0,2.0
7,2,24,1,2,4,19,38,5,4,5,1,1,1.0,0.53,9.87,9.347,1,2.0
7,2,25,1,1,1,32,33,2,5,2,1,1,2.0,0.33,10.2,4.996,0,1.0
7,2,26,1,1,2,28,6,2,4,4,2,1,1.0,0.61,10.81,11.937,1,2.0
7,2,27,1,1,3,51,39,3,4,3,1,1,2.0,1.24,12.05,3.489,0,2.0
7,2,28,1,1,4,26,52,2,3,3,2,1,1.0,0.37,12.42,2.419,1,2.0
7,2,30,1,1,6,9,43,2,4,2,1,1,2.0,0.85,13.76,17.523,0,1.0
7,2,31,1,2,1,18,54,3,4,4,2,1,2.0,0.74,14.5,7.635,0,2.0
7,2,32,1,2,2,16,45,3,5,5,2,1,2.0,0.26,14.76,3.27,0,1.0
7,2,33,1,2,3,34,53,2,3,3,2,1,2.0,0.24,15.0,2.34,0,1.0
7,2,34,1,2,4,30,9,2,3,2,1,1,1.0,0.41,15.41,5.635,1,2.0
7,2,35,1,2,5,49,52,4,2,2,2,1,2.0,0.94,16.35,2.356,0,2.0
7,2,36,1,1,1,40,13,2,3,3,2,1,1.0,0.47,16.82,8.74,1,1.0
7,2,37,1,1,2,18,30,2,5,2,1,1,2.0,0.43,17.25,6.849,0,2.0
7,2,38,1,1,3,3,19,3,5,3,1,1,2.0,0.65,17.9,13.573,0,1.0
7,2,39,1,1,4,16,42,5,3,3,2,1,1.0,0.82,18.72,7.877,1,2.0
7,2,40,1,2,1,48,18,3,2,2,2,1,2.0,0.64,19.36,4.964,0,1.0
7,2,41,1,2,2,16,43,3,4,4,2,1,2.0,0.62,19.98,4.225,0,1.0
7,2,42,1,2,3,1,6,2,4,2,1,1,1.0,0.33,20.31,9.589,1,2.0
7,2,43,1,1,1,49,24,5,2,2,2,1,1.0,0.52,20.83,3.587,1,2.0
7,2,44,1,1,2,18,16,4,3,3,2,1,1.0,0.3,21.13,13.636,1,1.0
7,2,45,1,1,3,11,30,2,3,3,2,1,1.0,0.58,21.71,3.812,1,1.0
7,2,46,1,1,4,6,4,5,4,4,2,1,1.0,0.63,22.34,4.292,1,1.0
7,2,47,1,2,1,41,50,4,5,5,2,1,2.0,1.23,23.57,2.837,0,1.0
7,2,48,1,2,2,54,41,3,2,3,1,1,1.0,0.66,24.23,9.972,1,2.0
7,2,49,1,2,3,44,34,2,5,2,1,1,1.0,0.41,24.64,2.804,1,1.0
7,2,50,1,2,4,29,33,3,5,3,1,1,1.0,0.55,25.19,4.421,1,1.0
7,2,51,1,2,5,26,40,3,5,5,2,1,2.0,0.93,26.12,9.7,0,2.0
7,2,52,1,1,1,5,24,4,3,3,2,1,1.0,0.37,26.49,2.885,1,1.0
7,2,53,1,1,2,15,40,3,2,2,2,1,1.0,0.52,27.01,4.676,1,1.0
7,2,54,1,1,3,27,9,4,2,2,2,1,1.0,0.59,27.6,2.772,1,1.0
7,2,55,1,2,1,14,45,2,3,2,1,1,1.0,0.35,27.95,6.672,1,2.0
7,2,56,1,2,2,51,37,3,4,4,2,1,2.0,0.05,28.0,13.7,0,2.0
7,2,57,1,2,3,19,28,2,4,4,2,1,2.0,0.87,28.87,2.342,0,1.0
7,2,58,1,2,4,37,53,4,2,4,1,1,1.0,0.5,29.37,4.915,1,2.0
7,2,59,1,2,5,37,6,5,2,2,2,1,2.0,0.75,30.12,4.002,0,2.0
7,2,60,1,2,6,16,38,5,3,5,1,1,1.0,0.66,30.78,8.211,1,2.0
7,2,61,1,1,1,17,26,2,4,2,1,1,2.0,0.73,31.51,4.022,0,1.0
7,2,62,1,2,1,13,4,5,3,5,1,1,1.0,0.41,31.92,9.584,1,1.0
7,2,63,1,1,1,29,37,5,3,5,1,1,2.0,0.85,32.77,1.221,0,1.0
7,2,64,1,1,2,49,24,5,2,5,1,1,2.0,0.42,33.19,6.372,0,1.0
7,2,65,1,2,1,5,33,5,2,5,1,1,1.0,0.4,33.59,3.043,1,1.0
7,2,66,1,2,2,34,41,4,3,4,1,1,1.0,0.75,34.34,7.94,1,1.0
7,2,67,1,1,1,12,21,3,2,3,1,1,2.0,0.54,34.88,3.49,0,1.0
7,2,68,1,1,2,23,18,4,2,4,1,1,2.0,0.06,34.94,8.659,0,1.0
7,2,69,1,1,3,21,8,5,3,5,1,1,2.0,0.8,35.74,9.315,0,1.0
7,2,71,1,1,5,11,38,3,4,3,1,1,2.0,1.29,37.03,8.215,0,
7,2,72,1,1,6,14,52,4,5,4,1,1,2.0,0.78,37.81,9.685,0,1.0
7,2,73,1,2,1,17,23,3,2,2,2,1,2.0,0.87,38.68,3.363,0,2.0
7,2,75,1,2,3,54,28,2,4,2,1,1,1.0,0.48,39.71,2.816,1,2.0
7,2,76,1,2,4,53,45,5,4,4,2,1,2.0,0.91,40.62,15.955,0,2.0
7,2,77,1,1,1,33,35,5,2,2,2,1,1.0,0.48,41.1,5.684,1,1.0
7,2,78,1,1,2,16,33,3,5,5,2,1,1.0,0.51,41.61,3.254,1,1.0
7,2,79,1,1,3,49,34,4,2,2,2,1,1.0,0.44,42.05,2.437,1,1.0
7,2,80,1,1,4,13,46,2,5,5,2,1,1.0,0.42,42.47,1.237,1,1.0
7,2,81,1,1,5,41,18,2,3,3,2,1,1.0,0.47,42.94,3.94,1,1.0
7,2,82,1,2,1,7,11,3,4,4,2,1,2.0,0.62,43.56,9.746,0,1.0
7,2,83,1,2,2,18,44,5,4,5,1,1,1.0,0.51,44.07,3.173,1,2.0
7,2,84,1,2,3,10,25,2,4,2,1,1,1.0,0.5,44.57,3.538,1,1.0
7,2,1,2,1,1,20,11,4,3,3,2,1,1.0,0.24,44.81,7.381,1,
7,2,2,2,1,2,3,19,5,3,3,2,1,1.0,0.44,45.25,8.499,1,1.0
7,2,3,2,1,3,45,47,4,3,3,2,1,1.0,0.53,45.78,2.241,1,1.0
7,2,4,2,1,4,39,17,3,4,4,2,1,1.0,0.54,46.32,2.739,1,1.0
7,2,5,2,1,5,45,35,3,2,2,2,1,1.0,0.52,46.84,3.714,1,1.0
7,2,6,2,1,6,53,42,5,2,2,2,1,1.0,0.5,47.34,2.673,1,1.0
7,2,7,2,2,1,45,7,5,2,2,2,1,2.0,0.66,48.0,3.348,0,1.0
7,2,8,2,2,2,50,27,4,3,3,2,1,2.0,0.44,48.44,2.595,0,1.0
7,2,9,2,2,3,51,25,2,5,5,2,1,2.0,0.73,49.17,3.187,0,1.0
7,2,10,2,2,4,6,44,3,5,5,2,1,2.0,0.78,49.95,2.175,0,1.0
7,2,11,2,1,1,16,13,3,4,4,2,1,1.0,0.49,50.44,1.97,1,1.0
7,2,12,2,1,2,13,20,5,3,3,2,1,1.0,0.54,50.98,2.516,1,1.0
7,2,13,2,1,3,8,27,2,3,3,2,1,1.0,0.46,51.44,2.19,1,1.0
7,2,14,2,1,4,21,36,2,3,3,2,1,1.0,0.46,51.9,2.671,1,1.0
7,2,15,2,1,5,26,54,3,4,4,2,1,1.0,0.45,52.35,3.991,1,1.0
7,2,16,2,2,1,15,24,4,5,5,2,1,2.0,0.05,52.4,2.372,0,1.0
7,2,17,2,1,1,6,39,4,3,3,2,1,1.0,0.53,52.93,2.936,1,1.0
7,2,18,2,1,2,7,31,4,2,2,2,1,1.0,0.65,53.58,1.521,1,1.0
7,2,19,2,1,3,51,25,2,5,5,2,1,1.0,0.43,54.01,1.138,1,1.0
7,2,20,2,1,4,31,46,3,5,3,1,1,2.0,0.26,54.27,4.418,0,2.0
7,2,21,2,2,1,25,36,5,3,3,2,1,2.0,0.84,55.11,2.503,0,2.0
7,2,22,2,2,2,31,44,4,3,3,2,1,2.0,0.52,55.63,5.045,0,1.0
7,2,23,2,2,3,51,34,4,2,2,2,1,2.0,1.23,56.86,2.162,0,1.0
7,2,24,2,2,4,24,52,5,4,4,2,1,2.0,0.01,56.87,17.157,0,1.0
7,2,25,2,2,5,23,42,4,2,2,2,1,2.0,0.14,57.01,4.594,0,1.0
7,2,26,2,2,6,48,14,2,5,5,2,1,2.0,1.53,58.54,4.483,0,1.0
7,2,27,2,1,1,37,29,3,2,3,1,1,2.0,0.7,59.24,3.715,0,2.0
7,2,28,2,1,2,23,21,3,5,3,1,1,2.0,0.29,59.53,11.858,0,1.0
7,2,29,2,2,1,49,5,3,4,4,2,1,2.0,0.51,60.04,3.437,0,2.0
7,2,30,2,2,2,15,50,3,4,4,2,1,2.0,0.35,60.39,1.81,0,1.0
7,2,31,2,2,3,32,47,4,5,4,1,1,1.0,0.62,61.01,9.612,1,2.0
7,2,32,2,2,4,19,5,5,3,3,2,1,2.0,0.51,61.52,3.347,0,2.0
7,2,33,2,2,5,13,36,5,4,4,2,1,2.0,0.89,62.41,3.97,0,1.0
7,2,34,2,1,1,41,4,4,5,4,1,1,2.0,0.83,63.24,4.13,0,2.0
7,2,35,2,1,2,53,4,4,3,4,1,1,2.0,0.39,63.63,5.412,0,1.0
7,2,36,2,1,3,38,14,5,2,2,2,1,1.0,0.49,64.12,4.944,1,2.0
7,2,37,2,2,1,3,21,2,5,5,2,1,2.0,0.56,64.68,4.39,0,1.0
7,2,38,2,2,2,16,39,2,5,5,2,1,2.0,0.12,64.8,2.771,0,1.0
7,2,39,2,2,3,32,7,3,2,3,1,1,1.0,0.47,65.27,5.799,1,2.0
7,2,40,2,1,1,7,2,2,5,2,1,1,2.0,0.46,65.73,3.465,0,1.0
7,2,41,2,2,1,20,26,5,3,3,2,1,2.0,0.02,65.75,1.682,0,2.0
7,2,42,2,2,2,33,54,2,3,3,2,1,2.0,0.94,66.69,1.76,0,1.0
7,2,43,2,1,1,11,17,2,5,2,1,1,2.0,0.17,66.86,7.729,0,2.0
7,2,44,2,1,2,54,25,5,4,5,1,1,2.0,1.0,67.86,2.146,0,1.0
7,2,45,2,1,3,36,5,4,2,4,1,1,2.0,0.18,68.04,2.638,0,1.0
7,2,46,2,1,4,42,45,3,2,2,2,1,1.0,0.3,68.34,7.285,1,2.0
7,2,47,2,1,5,37,29,3,5,5,2,1,1.0,0.6,68.94,11.828,1,1.0
7,2,48,2,2,1,20,37,3,4,3,1,1,1.0,0.67,69.61,9.716,1,2.0
7,2,49,2,2,2,25,33,5,2,2,2,1,2.0,0.82,70.43,2.117,0,2.0
7,2,50,2,2,3,36,20,2,4,4,2,1,2.0,0.57,71.0,3.46,0,1.0
7,2,51,2,1,1,54,47,4,5,4,1,1,2.0,0.09,71.09,1.541,0,2.0
7,2,52,2,2,1,7,47,2,4,2,1,1,1.0,0.41,71.5,7.219,1,1.0
7,2,53,2,2,2,37,19,5,2,2,2,1,2.0,1.08,72.58,4.179,0,2.0
7,2,54,2,2,3,51,33,4,3,4,1,1,1.0,0.64,73.22,4.964,1,2.0
7,2,55,2,2,4,35,21,2,3,2,1,1,1.0,0.43,73.65,2.805,1,1.0
7,2,56,2,1,1,7,6,4,2,4,1,1,2.0,0.88,74.53,10.499,0,1.0
7,2,57,2,1,2,30,52,2,3,3,2,1,1.0,0.53,75.06,1.988,1,2.0
7,2,58,2,1,3,54,28,2,4,2,1,1,2.0,0.32,75.38,9.187,0,2.0
7,2,59,2,2,1,50,19,5,4,4,2,1,2.0,0.11,75.49,4.357,0,2.0
7,2,60,2,1,1,37,44,4,2,2,2,1,1.0,0.53,76.02,9.749,1,1.0
7,2,61,2,1,2,40,46,5,4,4,2,1,1.0,0.29,76.31,4.885,1,1.0
7,2,62,2,1,3,23,30,5,2,2,2,1,1.0,0.31,76.62,7.412,1,1.0
7,2,63,2,1,4,2,38,5,2,5,1,1,2.0,1.45,78.07,2.821,0,2.0
7,2,64,2,2,1,42,23,2,4,4,2,1,2.0,0.47,78.54,1.621,0,2.0
7,2,65,2,2,2,25,41,3,2,3,1,1,1.0,0.81,79.35,3.51,1,2.0
7,2,66,2,1,1,9,8,3,4,4,2,1,1.0,0.47,79.82,2.421,1,2.0
7,2,67,2,1,2,4,27,5,4,4,2,1,1.0,0.52,80.34,2.022,1,1.0
7,2,68,2,1,3,21,1,2,3,3,2,1,1.0,0.61,80.95,6.885,1,1.0
7,2,69,2,1,4,53,38,2,4,2,1,1,2.0,0.42,81.37,2.515,0,2.0
7,2,70,2,1,5,24,42,3,5,3,1,1,2.0,0.25,81.62,2.052,0,1.0
7,2,71,2,1,6,17,27,2,4,2,1,1,2.0,1.17,82.79,12.113,0,1.0
7,2,72,2,2,1,10,41,4,2,2,2,1,2.0,0.09,82.88,4.418,0,2.0
7,2,73,2,2,2,41,15,2,3,3,2,1,2.0,0.88,83.76,3.651,0,1.0
7,2,74,2,2,3,27,42,3,2,2,2,1,2.0,0.26,84.02,3.669,0,1.0
7,2,75,2,2,4,19,31,5,3,3,2,1,2.0,0.85,84.87,1.395,0,1.0
7,2,76,2,2,5,31,44,5,4,4,2,1,2.0,0.9,85.77,4.548,0,1.0
7,2,77,2,2,6,13,46,4,5,4,1,1,1.0,0.4,86.17,6.042,1,2.0
7,2,78,2,1,1,30,3,2,4,2,1,1,2.0,0.75,86.92,1.29,0,1.0
7,2,79,2,1,2,48,7,3,5,5,2,1,1.0,0.62,87.54,2.976,1,2.0
7,2,80,2,2,1,15,47,5,3,5,1,1,1.0,0.38,87.92,5.651,1,2.0
7,2,81,2,2,2,29,49,4,5,4,1,1,1.0,0.54,88.46,2.219,1,1.0
7,2,82,2,2,3,43,38,3,5,5,2,1,2.0,0.48,88.94,3.267,0,2.0
7,2,83,2,2,4,41,30,4,5,5,2,1,2.0,0.37,89.31,1.683,0,1.0
7,2,84,2,2,5,26,13,3,2,3,1,1,1.0,0.48,89.79,7.085,1,2.0
7,2,1,3,2,1,31,41,3,4,3,1,1,1.0,0.37,90.16,5.17,1,
7,2,2,3,2,2,16,45,2,5,2,1,1,1.0,0.27,90.43,3.981,1,1.0
7,2,3,3,2,3,16,19,2,4,2,1,1,1.0,0.39,90.82,3.059,1,1.0
7,2,4,3,2,4,14,8,5,4,4,2,1,2.0,0.5,91.32,10.135,0,2.0
7,2,5,3,1,1,21,25,3,2,2,2,1,1.0,0.3,91.62,6.858,1,1.0
7,2,6,3,1,2,48,33,5,2,2,2,1,1.0,0.65,92.27,1.978,1,1.0
7,2,7,3,1,3,4,19,4,3,3,2,1,1.0,0.43,92.7,3.483,1,1.0
7,2,8,3,1,4,2,24,4,2,2,2,1,1.0,0.26,92.96,2.624,1,1.0
