SubNo,Group(1=OptHighReward;2=OptLowReward),Block_trial,Block,VarDist_cond,Run_number,Targ1_position,Targ2_position,Red_targ_digit,Blue_targ_digit,Response,Targ_Choice,Acc,OutcomeCond(0=inaccurate;1=lowReward;2=highReward),OutcomeValue,Points,RT,Optimal_Choice,Repeat_Switch
1,1,1,1,2,1,3,10,4,2,4,1,1,2.0,0.74,0.74,1929,1.0,
1,1,2,1,2,2,22,27,5,2,2,2,1,1.0,0.49,1.23,4313,0.0,2.0
1,1,3,1,2,3,40,13,5,3,3,2,1,1.0,0.37,1.6,6114,0.0,1.0
1,1,4,1,2,4,12,13,3,2,2,2,1,1.0,0.25,1.85,947,0.0,1.0
1,1,5,1,2,5,52,48,2,3,3,2,1,1.0,0.32,2.17,2426,0.0,1.0
1,1,6,1,2,6,29,45,4,5,4,1,1,2.0,0.38,2.55,3438,1.0,2.0
1,1,7,1,1,1,43,27,4,2,2,2,1,2.0,0.72,3.27,2586,1.0,2.0
1,1,8,1,2,1,9,52,3,2,3,1,1,2.0,0.68,3.95,3088,1.0,2.0
1,1,9,1,2,2,16,32,5,4,2,0,0,0.0,0.0,3.95,898,,
1,1,10,1,2,3,13,12,2,3,3,2,1,1.0,0.26,4.21,942,0.0,
1,1,11,1,2,4,40,3,3,4,4,2,1,1.0,0.26,4.47,3661,0.0,1.0
1,1,12,1,1,1,29,19,2,5,2,1,1,1.0,0.21,4.68,904,0.0,2.0
1,1,13,1,1,2,10,27,2,5,2,1,1,1.0,0.33,5.01,4802,0.0,1.0
1,1,14,1,1,3,37,2,2,5,2,1,1,1.0,0.38,5.39,1551,0.0,1.0
1,1,15,1,1,4,12,1,5,2,5,1,1,1.0,0.29,5.68,6462,0.0,1.0
1,1,16,1,1,5,39,1,5,3,3,2,1,2.0,0.61,6.29,929,1.0,2.0
1,1,17,1,2,1,13,7,4,5,4,1,1,2.0,0.66,6.95,1953,1.0,2.0
1,1,18,1,2,2,32,28,2,4,2,1,1,2.0,0.65,7.6,1360,1.0,1.0
1,1,19,1,2,3,9,24,4,3,4,1,1,2.0,0.55,8.15,3936,1.0,1.0
1,1,20,1,2,4,25,17,5,3,5,1,1,2.0,0.82,8.97,3216,1.0,1.0
1,1,21,1,2,5,23,4,3,4,3,1,1,2.0,0.72,9.69,2717,1.0,1.0
1,1,22,1,1,1,40,39,4,2,2,2,1,2.0,0.82,10.51,1477,1.0,2.0
1,1,23,1,1,2,19,15,3,2,2,2,1,2.0,0.61,11.12,1600,1.0,1.0
1,1,24,1,1,3,47,34,2,4,4,2,1,2.0,0.54,11.66,1845,1.0,1.0
1,1,25,1,1,4,31,42,3,2,2,2,1,2.0,0.76,12.42,2321,1.0,1.0
1,1,26,1,1,5,30,9,4,2,2,2,1,2.0,0.67,13.09,1002,1.0,1.0
1,1,27,1,1,6,38,54,4,5,5,2,1,2.0,0.58,13.67,3135,1.0,1.0
1,1,28,1,2,1,17,43,2,4,2,1,1,2.0,0.66,14.33,1295,1.0,2.0
1,1,29,1,1,1,52,14,5,4,4,2,1,2.0,0.43,14.76,1249,1.0,2.0
1,1,30,1,1,2,25,1,4,3,4,1,1,1.0,0.46,15.22,2700,0.0,2.0
1,1,31,1,1,3,23,37,4,2,2,2,1,2.0,0.55,15.77,2789,1.0,2.0
1,1,32,1,1,4,8,30,3,5,5,2,1,2.0,0.59,16.36,3652,1.0,1.0
1,1,33,1,2,1,50,37,5,3,5,1,1,2.0,0.82,17.18,1887,1.0,2.0
1,1,34,1,2,2,42,48,4,2,4,1,1,2.0,0.56,17.74,1961,1.0,1.0
1,1,35,1,2,3,28,37,3,4,3,1,1,2.0,0.62,18.36,2984,1.0,1.0
1,1,36,1,1,1,35,28,4,3,4,1,1,1.0,0.27,18.63,2623,0.0,1.0
1,1,37,1,1,2,49,53,5,2,2,2,1,2.0,0.86,19.49,1691,1.0,2.0
1,1,38,1,1,3,13,5,3,4,3,1,1,1.0,0.34,19.83,1077,0.0,2.0
1,1,39,1,2,1,52,18,4,3,4,1,1,2.0,0.54,20.37,3103,1.0,1.0
1,1,40,1,2,2,14,12,2,5,2,1,1,2.0,0.53,20.9,1393,1.0,1.0
1,1,41,1,1,1,38,30,3,4,4,2,1,2.0,0.87,21.77,1599,1.0,2.0
1,1,42,1,1,2,53,51,4,5,5,2,1,2.0,0.9,22.67,1668,1.0,1.0
1,1,43,1,2,1,50,15,3,5,3,1,1,2.0,0.86,23.53,1847,1.0,2.0
1,1,44,1,1,1,42,1,5,2,2,2,1,2.0,0.52,24.05,1914,1.0,2.0
1,1,45,1,1,2,5,28,5,2,2,2,1,2.0,0.64,24.69,2059,1.0,1.0
1,1,46,1,1,3,18,3,4,5,5,2,1,2.0,0.64,25.33,3582,1.0,1.0
1,1,47,1,2,1,14,53,2,4,2,1,1,2.0,0.7,26.03,980,1.0,2.0
1,1,48,1,2,2,49,28,4,5,5,2,1,1.0,0.27,26.3,1778,0.0,2.0
1,1,49,1,2,3,42,40,4,2,4,1,1,2.0,0.55,26.85,3745,1.0,2.0
1,1,50,1,2,4,5,9,2,3,2,1,1,2.0,0.61,27.46,825,1.0,1.0
1,1,51,1,2,5,45,4,5,4,5,1,1,2.0,0.79,28.25,4470,1.0,1.0
1,1,52,1,1,1,23,3,2,3,2,1,1,1.0,0.61,28.86,4376,0.0,1.0
1,1,53,1,1,2,25,2,2,5,2,1,1,1.0,0.36,29.22,2319,0.0,1.0
1,1,54,1,1,3,42,19,3,5,5,2,1,2.0,0.64,29.86,2303,1.0,2.0
1,1,55,1,1,4,41,36,3,2,2,2,1,2.0,0.75,30.61,2145,1.0,1.0
1,1,56,1,1,5,53,42,2,3,3,2,1,2.0,0.61,31.22,3177,1.0,1.0
1,1,57,1,2,1,34,46,3,4,2,0,0,0.0,0.0,31.22,1920,,
1,1,58,1,2,2,6,54,3,5,3,1,1,2.0,0.89,32.11,2906,1.0,
1,1,59,1,2,3,39,15,2,3,2,1,1,2.0,0.8,32.91,1587,1.0,1.0
1,1,60,1,1,1,11,38,2,5,5,2,1,2.0,0.52,33.43,2105,1.0,2.0
1,1,61,1,1,2,50,24,2,3,3,2,1,2.0,0.59,34.02,1979,1.0,1.0
1,1,62,1,2,1,45,52,5,3,5,1,1,2.0,0.82,34.84,2769,1.0,2.0
1,1,63,1,2,2,3,23,3,2,3,1,1,2.0,0.71,35.55,2112,1.0,1.0
1,1,64,1,2,3,23,38,5,3,5,1,1,2.0,0.71,36.26,1225,1.0,1.0
1,1,65,1,2,4,19,18,4,3,4,1,1,2.0,0.47,36.73,2263,1.0,1.0
1,1,66,1,2,5,54,46,3,2,3,1,1,2.0,0.69,37.42,1945,1.0,1.0
1,1,67,1,2,6,38,45,5,2,5,1,1,2.0,0.75,38.17,1434,1.0,1.0
1,1,68,1,1,1,15,5,4,5,5,2,1,2.0,0.59,38.76,2645,1.0,2.0
1,1,69,1,1,2,17,41,5,3,3,2,1,2.0,0.55,39.31,2353,1.0,1.0
1,1,70,1,1,3,27,10,2,4,4,2,1,2.0,0.65,39.96,1504,1.0,1.0
1,1,71,1,1,4,14,46,4,3,3,2,1,2.0,0.54,40.5,1265,1.0,1.0
1,1,72,1,2,1,51,26,4,3,4,1,1,2.0,0.66,41.16,3981,1.0,2.0
1,1,73,1,2,2,36,45,2,4,2,1,1,2.0,0.7,41.86,1954,1.0,1.0
1,1,74,1,2,3,1,54,3,4,3,1,1,2.0,0.83,42.69,1233,1.0,1.0
1,1,75,1,2,4,27,37,3,5,3,1,1,2.0,0.69,43.38,1078,1.0,1.0
1,1,76,1,1,1,7,40,3,5,5,2,1,2.0,0.6,43.98,2168,1.0,2.0
1,1,77,1,2,1,37,27,5,4,5,1,1,2.0,0.86,44.84,2087,1.0,2.0
1,1,78,1,2,2,25,40,5,4,5,1,1,2.0,0.76,45.6,1583,1.0,1.0
1,1,79,1,1,1,17,26,2,4,4,2,1,2.0,0.69,46.29,2149,1.0,2.0
1,1,80,1,1,2,19,49,5,4,4,2,1,2.0,0.75,47.04,5012,1.0,1.0
1,1,81,1,1,3,4,37,5,2,2,2,1,2.0,0.61,47.65,1505,1.0,1.0
1,1,82,1,1,4,30,34,3,5,5,2,1,2.0,0.77,48.42,2362,1.0,1.0
1,1,83,1,1,5,45,12,5,4,4,2,1,2.0,0.7,49.12,1425,1.0,1.0
1,1,84,1,1,6,38,12,2,5,5,2,1,2.0,0.74,49.86,837,1.0,1.0
1,1,1,2,1,1,17,44,4,5,5,2,1,2.0,0.54,50.4,2926,1.0,
1,1,2,2,1,2,25,5,5,2,2,2,1,2.0,0.85,51.25,1934,1.0,1.0
1,1,3,2,2,1,47,7,3,5,3,1,1,2.0,0.72,51.97,3302,1.0,2.0
1,1,4,2,2,2,53,52,3,4,3,1,1,2.0,0.44,52.41,1719,1.0,1.0
1,1,5,2,2,3,38,44,5,2,5,1,1,2.0,0.72,53.13,1920,1.0,1.0
1,1,6,2,1,1,43,10,2,3,2,1,1,1.0,0.48,53.61,1185,0.0,1.0
1,1,7,2,1,2,21,19,5,4,4,2,1,2.0,0.74,54.35,2990,1.0,2.0
1,1,8,2,1,3,21,27,5,4,4,2,1,2.0,0.83,55.18,1261,1.0,1.0
1,1,9,2,1,4,34,36,2,3,3,2,1,2.0,0.82,56.0,1840,1.0,1.0
1,1,10,2,2,1,2,6,3,4,2,0,0,0.0,0.0,56.0,1260,,
1,1,11,2,2,2,47,48,5,3,5,1,1,2.0,0.56,56.56,2900,1.0,
1,1,12,2,1,1,34,36,5,4,4,2,1,2.0,0.4,56.96,2797,1.0,2.0
1,1,13,2,1,2,36,2,5,4,4,2,1,2.0,0.88,57.84,3322,1.0,1.0
1,1,14,2,1,3,19,23,4,3,3,2,1,2.0,0.71,58.55,2483,1.0,1.0
1,1,15,2,1,4,11,15,3,2,2,2,1,2.0,0.67,59.22,1629,1.0,1.0
1,1,16,2,1,5,52,46,5,2,2,2,1,2.0,0.62,59.84,3490,1.0,1.0
1,1,17,2,1,6,27,21,4,3,3,2,1,2.0,0.49,60.33,3516,1.0,1.0
1,1,18,2,2,1,11,28,4,2,4,1,1,2.0,0.69,61.02,1620,1.0,2.0
1,1,19,2,2,2,7,52,2,3,2,1,1,2.0,0.51,61.53,2913,1.0,1.0
1,1,20,2,2,3,11,50,4,5,4,1,1,2.0,0.57,62.1,1218,1.0,1.0
1,1,21,2,2,4,15,21,2,4,2,1,1,2.0,0.64,62.74,903,1.0,1.0
1,1,22,2,2,5,44,4,5,3,5,1,1,2.0,0.76,63.5,2696,1.0,1.0
1,1,23,2,1,1,41,13,5,3,3,2,1,2.0,0.71,64.21,1658,1.0,2.0
1,1,24,2,1,2,46,36,3,4,4,2,1,2.0,0.51,64.72,2580,1.0,1.0
1,1,25,2,1,3,47,28,5,3,3,2,1,2.0,0.84,65.56,1346,1.0,1.0
1,1,26,2,1,4,33,23,3,4,4,2,1,2.0,0.67,66.23,2905,1.0,1.0
1,1,27,2,1,5,31,43,3,5,5,2,1,2.0,0.89,67.12,1483,1.0,1.0
1,1,28,2,2,1,21,38,2,4,2,1,1,2.0,0.52,67.64,1869,1.0,2.0
1,1,29,2,1,1,40,10,2,3,3,2,1,2.0,0.57,68.21,1032,1.0,2.0
1,1,30,2,1,2,21,35,5,4,4,2,1,2.0,0.58,68.79,3588,1.0,1.0
1,1,31,2,1,3,20,49,4,3,4,1,1,1.0,0.32,69.11,3842,0.0,2.0
1,1,32,2,2,1,6,15,3,4,3,1,1,2.0,0.55,69.66,5757,1.0,1.0
1,1,33,2,2,2,31,45,2,3,2,1,1,2.0,0.55,70.21,3205,1.0,1.0
1,1,34,2,2,3,48,3,4,5,4,1,1,2.0,0.39,70.6,1394,1.0,1.0
1,1,35,2,2,4,17,33,3,5,3,1,1,2.0,0.57,71.17,1656,1.0,1.0
1,1,36,2,2,5,40,32,3,2,3,1,1,2.0,0.7,71.87,2316,1.0,1.0
1,1,37,2,2,6,51,43,3,2,3,1,1,2.0,0.65,72.52,2180,1.0,1.0
1,1,38,2,1,1,43,49,3,4,4,2,1,2.0,0.65,73.17,4850,1.0,2.0
1,1,39,2,2,1,2,47,5,3,5,1,1,2.0,0.65,73.82,4182,1.0,2.0
1,1,40,2,2,2,32,19,2,4,2,1,1,2.0,0.69,74.51,1076,1.0,1.0
1,1,41,2,2,3,14,37,5,3,5,1,1,2.0,0.61,75.12,1094,1.0,1.0
1,1,42,2,2,4,30,45,3,2,4,0,0,0.0,0.0,75.12,864,,
1,1,43,2,1,1,44,47,4,3,4,1,1,1.0,0.25,75.37,2816,0.0,
1,1,44,2,1,2,54,49,3,2,3,1,1,1.0,0.39,75.76,2020,0.0,1.0
1,1,45,2,1,3,42,20,2,4,4,2,1,2.0,0.62,76.38,3185,1.0,2.0
1,1,46,2,2,1,10,34,4,2,4,1,1,2.0,0.69,77.07,1231,1.0,2.0
1,1,47,2,2,2,21,51,5,4,5,1,1,2.0,0.55,77.62,2419,1.0,1.0
1,1,48,2,2,3,30,41,5,4,5,1,1,2.0,0.65,78.27,1007,1.0,1.0
1,1,49,2,2,4,45,37,2,5,2,1,1,2.0,0.75,79.02,3005,1.0,1.0
1,1,50,2,2,5,34,4,3,2,3,1,1,2.0,0.56,79.58,1602,1.0,1.0
1,1,51,2,1,1,36,23,4,3,3,2,1,2.0,0.68,80.26,2544,1.0,2.0
1,1,52,2,1,2,54,6,3,2,2,2,1,2.0,0.64,80.9,2311,1.0,1.0
1,1,53,2,1,3,9,47,2,5,5,2,1,2.0,0.66,81.56,3072,1.0,1.0
1,1,54,2,1,4,28,23,2,4,4,2,1,2.0,0.62,82.18,2251,1.0,1.0
1,1,55,2,1,5,36,37,2,5,5,2,1,2.0,0.42,82.6,1926,1.0,1.0
1,1,56,2,2,1,26,33,5,2,5,1,1,2.0,0.65,83.25,1143,1.0,2.0
1,1,57,2,2,2,50,22,2,3,2,1,1,2.0,0.83,84.08,3463,1.0,1.0
1,1,58,2,2,3,39,29,2,5,2,1,1,2.0,0.74,84.82,2225,1.0,1.0
1,1,59,2,2,4,52,12,4,2,4,1,1,2.0,0.62,85.44,1414,1.0,1.0
1,1,60,2,2,5,26,17,3,5,3,1,1,2.0,0.59,86.03,2411,1.0,1.0
1,1,61,2,2,6,4,27,2,5,2,1,1,2.0,0.7,86.73,1263,1.0,1.0
1,1,62,2,1,1,46,8,4,5,5,2,1,2.0,0.62,87.35,2330,1.0,2.0
1,1,63,2,1,2,14,22,4,3,3,2,1,2.0,0.6,87.95,3306,1.0,1.0
1,1,64,2,1,3,33,17,5,2,2,2,1,2.0,0.67,88.62,1763,1.0,1.0
1,1,65,2,1,4,39,24,4,2,2,2,1,2.0,0.81,89.43,2482,1.0,1.0
1,1,66,2,1,5,1,20,2,4,4,2,1,2.0,0.37,89.8,2348,1.0,1.0
1,1,67,2,1,6,29,17,3,5,5,2,1,2.0,0.74,90.54,2012,1.0,1.0
1,1,68,2,2,1,21,47,2,5,2,1,1,2.0,0.55,91.09,2889,1.0,2.0
1,1,69,2,1,1,30,23,4,2,2,2,1,2.0,0.78,91.87,1475,1.0,2.0
1,1,70,2,2,1,7,15,3,5,3,1,1,2.0,0.38,92.25,3214,1.0,2.0
1,1,71,2,2,2,28,21,4,2,4,1,1,2.0,0.64,92.89,1650,1.0,1.0
1,1,72,2,2,3,45,13,2,4,2,1,1,2.0,0.67,93.56,3141,1.0,1.0
1,1,73,2,2,4,27,16,4,2,4,1,1,2.0,0.62,94.18,1469,1.0,1.0
1,1,74,2,1,1,25,34,5,2,2,2,1,2.0,0.64,94.82,1680,1.0,2.0
1,1,75,2,1,2,11,30,4,3,3,2,1,2.0,0.49,95.31,1026,1.0,1.0
1,1,76,2,2,1,25,32,3,5,3,1,1,2.0,0.53,95.84,1591,1.0,2.0
1,1,77,2,2,2,30,28,2,3,2,1,1,2.0,0.57,96.41,1629,1.0,1.0
1,1,78,2,1,1,7,5,5,2,2,2,1,2.0,0.71,97.12,1946,1.0,2.0
1,1,79,2,1,2,36,17,4,5,5,2,1,2.0,0.6,97.72,1842,1.0,1.0
1,1,80,2,1,3,27,11,5,3,3,2,1,2.0,0.85,98.57,1013,1.0,1.0
1,1,81,2,1,4,53,34,3,4,4,2,1,2.0,0.68,99.25,1866,1.0,1.0
1,1,82,2,2,1,45,30,4,5,4,1,1,2.0,0.45,99.7,3284,1.0,2.0
1,1,83,2,2,2,26,50,2,5,2,1,1,2.0,0.61,100.31,3023,1.0,1.0
1,1,84,2,2,3,19,20,4,5,4,1,1,2.0,0.59,100.9,1947,1.0,1.0
1,1,1,3,2,1,28,5,4,2,2,2,1,1.0,0.35,101.25,1603,0.0,
1,1,2,3,2,2,3,52,5,4,5,1,1,2.0,0.64,101.89,2625,1.0,2.0
1,1,3,3,2,3,29,19,2,5,2,1,1,2.0,0.63,102.52,2653,1.0,1.0
1,1,4,3,2,4,51,7,2,4,2,1,1,2.0,0.58,103.1,1329,1.0,1.0
1,1,5,3,2,5,37,42,5,2,5,1,1,2.0,0.66,103.76,2633,1.0,1.0
1,1,6,3,1,1,9,42,2,3,4,0,0,0.0,0.0,103.76,2773,,
1,1,7,3,1,2,38,30,3,5,5,2,1,2.0,0.5,104.26,2574,1.0,
1,1,8,3,2,1,1,29,3,5,3,1,1,2.0,0.74,105.0,5005,1.0,2.0
1,1,9,3,1,1,26,53,3,4,4,2,1,2.0,0.51,105.51,3082,1.0,2.0
1,1,10,3,1,2,15,54,4,5,5,2,1,2.0,0.59,106.1,1500,1.0,1.0
1,1,11,3,1,3,3,51,3,5,5,2,1,2.0,0.65,106.75,1261,1.0,1.0
1,1,12,3,2,1,49,25,3,5,3,1,1,2.0,0.7,107.45,1897,1.0,2.0
1,1,13,3,2,2,44,15,3,2,3,1,1,2.0,0.66,108.11,3162,1.0,1.0
1,1,14,3,2,3,26,15,4,5,4,1,1,2.0,0.87,108.98,1329,1.0,1.0
1,1,15,3,2,4,9,50,4,3,4,1,1,2.0,0.86,109.84,1074,1.0,1.0
1,1,16,3,2,5,49,41,5,3,5,1,1,2.0,0.74,110.58,3781,1.0,1.0
1,1,17,3,2,6,48,50,5,3,5,1,1,2.0,0.68,111.26,1538,1.0,1.0
1,1,18,3,1,1,18,44,3,4,4,2,1,2.0,0.57,111.83,3346,1.0,2.0
1,1,19,3,1,2,48,1,2,3,3,2,1,2.0,0.61,112.44,1626,1.0,1.0
1,1,20,3,1,3,9,48,3,2,3,1,1,1.0,0.17,112.61,1407,0.0,2.0
1,1,21,3,1,4,26,12,4,5,5,2,1,2.0,0.62,113.23,2692,1.0,2.0
1,1,22,3,1,5,33,32,3,4,4,2,1,2.0,0.61,113.84,1118,1.0,1.0
1,1,23,3,2,1,15,51,2,4,2,1,1,2.0,0.87,114.71,1662,1.0,2.0
1,1,24,3,2,2,33,51,3,4,3,1,1,2.0,0.76,115.47,1978,1.0,1.0
1,1,25,3,2,3,23,16,4,3,4,1,1,2.0,0.67,116.14,1936,1.0,1.0
1,1,26,3,2,4,27,29,4,2,4,1,1,2.0,0.63,116.77,936,1.0,1.0
1,1,27,3,1,1,46,40,5,3,4,0,0,0.0,0.0,116.77,2776,,
1,1,28,3,1,2,28,53,5,2,2,2,1,2.0,0.68,117.45,1747,1.0,
1,1,29,3,1,3,46,24,4,3,3,2,1,2.0,0.76,118.21,2907,1.0,1.0
1,1,30,3,1,4,18,25,2,5,5,2,1,2.0,0.93,119.14,1052,1.0,1.0
1,1,31,3,1,5,1,7,3,2,2,2,1,2.0,0.71,119.85,2655,1.0,1.0
1,1,32,3,1,6,49,36,5,3,3,2,1,2.0,0.77,120.62,2659,1.0,1.0
1,1,33,3,2,1,51,41,5,4,5,1,1,2.0,0.75,121.37,3486,1.0,2.0
1,1,34,3,2,2,7,31,3,2,3,1,1,2.0,0.73,122.1,3527,1.0,1.0
1,1,35,3,1,1,24,25,3,5,5,2,1,2.0,0.79,122.89,4905,1.0,2.0
1,1,36,3,2,1,23,21,5,3,5,1,1,2.0,0.82,123.71,3762,1.0,2.0
1,1,37,3,2,2,52,7,5,2,5,1,1,2.0,0.67,124.38,1409,1.0,1.0
1,1,38,3,2,3,7,52,5,2,5,1,1,2.0,0.63,125.01,1518,1.0,1.0
1,1,39,3,1,1,19,48,4,2,2,2,1,2.0,0.69,125.7,1335,1.0,2.0
1,1,40,3,1,2,5,18,5,2,2,2,1,2.0,0.78,126.48,2647,1.0,1.0
1,1,41,3,1,3,27,24,4,5,5,2,1,2.0,0.81,127.29,2714,1.0,1.0
1,1,42,3,1,4,47,33,5,3,3,2,1,2.0,0.6,127.89,1659,1.0,1.0
1,1,43,3,2,1,32,13,2,3,2,1,1,2.0,0.77,128.66,1078,1.0,2.0
1,1,44,3,2,2,33,22,3,2,3,1,1,2.0,0.65,129.31,1593,1.0,1.0
1,1,45,3,2,3,12,45,4,2,4,1,1,2.0,0.63,129.94,2375,1.0,1.0
1,1,46,3,2,4,18,34,3,5,3,1,1,2.0,0.73,130.67,1702,1.0,1.0
1,1,47,3,2,5,23,29,4,5,4,1,1,2.0,0.78,131.45,2623,1.0,1.0
1,1,48,3,1,1,23,20,2,5,5,2,1,2.0,0.6,132.05,3019,1.0,2.0
1,1,49,3,1,2,26,40,3,5,5,2,1,2.0,0.49,132.54,3312,1.0,1.0
1,1,50,3,2,1,28,46,5,3,5,1,1,2.0,0.66,133.2,1026,1.0,2.0
1,1,51,3,1,1,44,10,5,4,5,1,1,1.0,0.4,133.6,902,0.0,1.0
1,1,52,3,1,2,43,4,3,4,4,2,1,2.0,0.68,134.28,2551,1.0,2.0
1,1,53,3,1,3,52,49,2,4,4,2,1,2.0,0.85,135.13,934,1.0,1.0
1,1,54,3,1,4,49,4,4,2,2,2,1,2.0,0.63,135.76,2822,1.0,1.0
1,1,55,3,2,1,1,12,3,2,2,2,1,1.0,0.43,136.19,1187,0.0,1.0
1,1,56,3,2,2,40,8,2,5,2,1,1,2.0,0.57,136.76,2329,1.0,2.0
1,1,57,3,2,3,31,10,5,4,5,1,1,2.0,0.52,137.28,2754,1.0,1.0
1,1,58,3,2,4,49,37,4,3,4,1,1,2.0,0.75,138.03,1129,1.0,1.0
1,1,59,3,1,1,8,52,4,5,5,2,1,2.0,0.5,138.53,1433,1.0,2.0
1,1,60,3,2,1,45,46,4,3,4,1,1,2.0,0.51,139.04,2989,1.0,2.0
1,1,61,3,2,2,20,5,5,4,5,1,1,2.0,0.6,139.64,1522,1.0,1.0
1,1,62,3,2,3,18,23,2,4,2,1,1,2.0,0.49,140.13,2395,1.0,1.0
1,1,63,3,1,1,30,27,4,5,5,2,1,2.0,0.73,140.86,1057,1.0,2.0
1,1,64,3,1,2,43,39,4,2,2,2,1,2.0,0.63,141.49,2468,1.0,1.0
1,1,65,3,1,3,1,24,2,4,4,2,1,2.0,0.51,142.0,1143,1.0,1.0
1,1,66,3,2,1,14,22,3,4,4,2,1,1.0,0.23,142.23,2567,0.0,1.0
1,1,67,3,2,2,1,3,2,3,2,1,1,2.0,0.55,142.78,2270,1.0,2.0
1,1,68,3,1,1,6,50,2,5,5,2,1,2.0,0.66,143.44,1296,1.0,2.0
1,1,69,3,1,2,45,37,4,2,2,2,1,2.0,0.38,143.82,2058,1.0,1.0
1,1,70,3,1,3,31,30,3,2,2,2,1,2.0,0.59,144.41,2853,1.0,1.0
1,1,71,3,1,4,20,16,4,3,3,2,1,2.0,0.5,144.91,1960,1.0,1.0
1,1,72,3,1,5,43,9,5,4,4,2,1,2.0,0.71,145.62,1127,1.0,1.0
1,1,73,3,2,1,20,18,5,2,5,1,1,2.0,0.74,146.36,2128,1.0,2.0
1,1,74,3,2,2,16,1,2,3,4,0,0,0.0,0.0,146.36,841,,
1,1,75,3,2,3,33,51,2,4,2,1,1,2.0,0.68,147.04,2065,1.0,
1,1,76,3,2,4,7,6,2,4,2,1,1,2.0,0.66,147.7,916,1.0,1.0
1,1,77,3,2,5,54,45,3,4,3,1,1,2.0,0.36,148.06,2541,1.0,1.0
1,1,78,3,2,6,2,40,2,5,2,1,1,2.0,0.67,148.73,589,1.0,1.0
1,1,79,3,1,1,32,52,2,3,2,1,1,1.0,0.23,148.96,1299,0.0,1.0
1,1,80,3,1,2,22,12,4,3,3,2,1,2.0,0.64,149.6,716,1.0,2.0
1,1,81,3,1,3,40,53,5,4,4,2,1,2.0,0.63,150.23,3668,1.0,1.0
1,1,82,3,1,4,3,39,2,3,3,2,1,2.0,0.53,150.76,1527,1.0,1.0
1,1,83,3,1,5,8,39,5,2,2,2,1,2.0,0.74,151.5,1623,1.0,1.0
1,1,84,3,1,6,10,38,2,5,5,2,1,2.0,0.7,152.2,3476,1.0,1.0
1,1,1,4,2,1,3,36,5,3,5,1,1,2.0,0.63,152.83,1405,1.0,
1,1,2,4,2,2,48,17,4,3,4,1,1,2.0,0.77,153.6,2842,1.0,1.0
1,1,3,4,2,3,20,14,4,2,4,1,1,2.0,0.85,154.45,1766,1.0,1.0
1,1,4,4,2,4,21,25,4,2,4,1,1,2.0,0.54,154.99,2813,1.0,1.0
1,1,5,4,2,5,29,30,2,4,2,1,1,2.0,0.66,155.65,2786,1.0,1.0
1,1,6,4,2,6,14,20,4,3,4,1,1,2.0,0.54,156.19,2016,1.0,1.0
1,1,7,4,1,1,47,42,2,3,3,2,1,2.0,0.76,156.95,3157,1.0,2.0
1,1,8,4,2,1,7,39,5,4,5,1,1,2.0,0.73,157.68,1388,1.0,2.0
1,1,9,4,2,2,24,23,3,5,3,1,1,2.0,0.61,158.29,1338,1.0,1.0
1,1,10,4,2,3,2,51,5,4,5,1,1,2.0,0.6,158.89,3114,1.0,1.0
1,1,11,4,2,4,15,24,5,3,5,1,1,2.0,0.58,159.47,1930,1.0,1.0
1,1,12,4,1,1,35,16,3,5,5,2,1,2.0,0.78,160.25,2650,1.0,2.0
1,1,13,4,1,2,38,17,4,3,5,0,0,0.0,0.0,160.25,1142,,
1,1,14,4,1,3,33,9,4,3,3,2,1,2.0,0.64,160.89,786,1.0,
1,1,15,4,1,4,39,38,3,4,4,2,1,2.0,0.65,161.54,1952,1.0,1.0
1,1,16,4,1,5,23,29,3,2,3,1,1,1.0,0.18,161.72,967,0.0,2.0
1,1,17,4,2,1,34,47,5,4,5,1,1,2.0,0.7,162.42,2190,1.0,1.0
1,1,18,4,2,2,17,53,5,2,5,1,1,2.0,0.98,163.4,2796,1.0,1.0
1,1,19,4,2,3,28,46,4,2,4,1,1,2.0,0.7,164.1,1273,1.0,1.0
1,1,20,4,2,4,51,35,5,3,5,1,1,2.0,0.5,164.6,1668,1.0,1.0
1,1,21,4,2,5,49,43,5,4,5,1,1,2.0,0.7,165.3,1022,1.0,1.0
1,1,22,4,1,1,51,46,5,4,5,1,1,1.0,0.16,165.46,1714,0.0,1.0
1,1,23,4,1,2,7,20,5,3,4,0,0,0.0,0.0,165.46,3251,,
1,1,24,4,1,3,53,43,5,2,5,1,1,1.0,0.35,165.81,1402,0.0,
1,1,25,4,1,4,35,41,2,4,4,2,1,2.0,0.47,166.28,3496,1.0,2.0
1,1,26,4,1,5,23,53,4,2,2,2,1,2.0,0.75,167.03,2905,1.0,1.0
1,1,27,4,1,6,14,12,5,3,3,2,1,2.0,0.8,167.83,1331,1.0,1.0
1,1,28,4,2,1,5,28,3,4,4,2,1,1.0,0.52,168.35,707,0.0,1.0
1,1,29,4,1,1,32,16,4,5,4,1,1,1.0,0.5,168.85,1932,0.0,2.0
1,1,30,4,1,2,8,38,2,3,3,2,1,2.0,0.58,169.43,2277,1.0,2.0
1,1,31,4,1,3,5,35,3,5,5,2,1,2.0,0.72,170.15,2063,1.0,1.0
1,1,32,4,1,4,15,37,4,5,5,2,1,2.0,0.77,170.92,2746,1.0,1.0
1,1,33,4,2,1,52,54,3,2,3,1,1,2.0,0.54,171.46,1474,1.0,2.0
1,1,34,4,2,2,13,17,3,4,3,1,1,2.0,0.69,172.15,1436,1.0,1.0
1,1,35,4,2,3,40,24,5,4,5,1,1,2.0,0.76,172.91,4185,1.0,1.0
1,1,36,4,1,1,34,10,5,2,2,2,1,2.0,0.52,173.43,998,1.0,2.0
1,1,37,4,1,2,16,46,3,2,2,2,1,2.0,0.55,173.98,1308,1.0,1.0
1,1,38,4,1,3,37,46,4,2,2,2,1,2.0,0.76,174.74,2741,1.0,1.0
1,1,39,4,2,1,39,4,2,5,2,1,1,2.0,0.67,175.41,2413,1.0,2.0
1,1,40,4,2,2,2,18,4,5,4,1,1,2.0,0.73,176.14,1410,1.0,1.0
1,1,41,4,1,1,48,30,4,3,3,2,1,2.0,0.83,176.97,1319,1.0,2.0
1,1,42,4,1,2,13,39,4,2,2,2,1,2.0,0.72,177.69,2104,1.0,1.0
1,1,43,4,2,1,12,50,3,5,4,0,0,0.0,0.0,177.69,1025,,
1,1,44,4,1,1,2,51,4,5,5,2,1,2.0,0.57,178.26,2538,1.0,
1,1,45,4,1,2,3,35,3,2,3,1,1,1.0,0.42,178.68,2586,0.0,2.0
1,1,46,4,1,3,33,22,3,2,2,2,1,2.0,0.65,179.33,2632,1.0,2.0
1,1,47,4,2,1,47,42,5,2,5,1,1,2.0,0.57,179.9,2628,1.0,2.0
1,1,48,4,2,2,19,48,4,5,4,1,1,2.0,0.91,180.81,1672,1.0,1.0
1,1,49,4,2,3,50,35,4,5,4,1,1,2.0,0.68,181.49,2363,1.0,1.0
1,1,50,4,2,4,24,2,2,5,2,1,1,2.0,0.56,182.05,938,1.0,1.0
1,1,51,4,2,5,33,37,2,5,2,1,1,2.0,0.74,182.79,2185,1.0,1.0
1,1,52,4,1,1,16,32,4,3,4,1,1,1.0,0.53,183.32,2623,0.0,1.0
1,1,53,4,1,2,29,47,5,4,4,2,1,2.0,0.74,184.06,2756,1.0,2.0
1,1,54,4,1,3,29,54,5,2,2,2,1,2.0,0.76,184.82,2332,1.0,1.0
1,1,55,4,1,4,9,16,3,2,2,2,1,2.0,0.68,185.5,1739,1.0,1.0
1,1,56,4,1,5,38,8,2,4,4,2,1,2.0,0.65,186.15,915,1.0,1.0
1,1,57,4,2,1,17,14,2,4,2,1,1,2.0,0.77,186.92,1964,1.0,2.0
1,1,58,4,2,2,32,34,2,4,2,1,1,2.0,0.64,187.56,2067,1.0,1.0
1,1,59,4,2,3,5,11,5,2,5,1,1,2.0,0.68,188.24,2581,1.0,1.0
1,1,60,4,1,1,41,50,2,5,5,2,1,2.0,0.6,188.84,1651,1.0,2.0
1,1,61,4,1,2,51,43,2,3,3,2,1,2.0,0.59,189.43,2792,1.0,1.0
1,1,62,4,2,1,14,41,4,5,4,1,1,2.0,0.64,190.07,2564,1.0,2.0
1,1,63,4,2,2,14,22,2,4,2,1,1,2.0,0.53,190.6,2124,1.0,1.0
1,1,64,4,2,3,29,50,5,2,5,1,1,2.0,0.7,191.3,3332,1.0,1.0
1,1,65,4,2,4,52,3,3,4,3,1,1,2.0,0.68,191.98,2268,1.0,1.0
1,1,66,4,2,5,41,8,2,3,2,1,1,2.0,0.66,192.64,2519,1.0,1.0
1,1,67,4,2,6,38,33,2,5,2,1,1,2.0,0.4,193.04,2480,1.0,1.0
1,1,68,4,1,1,46,35,4,3,3,2,1,2.0,0.61,193.65,2121,1.0,2.0
1,1,69,4,1,2,44,38,5,3,3,2,1,2.0,0.7,194.35,2226,1.0,1.0
1,1,70,4,1,3,32,23,2,4,4,2,1,2.0,0.71,195.06,2079,1.0,1.0
1,1,71,4,1,4,41,27,2,5,5,2,1,2.0,0.69,195.75,2610,1.0,1.0
1,1,72,4,2,1,29,33,3,4,3,1,1,2.0,0.66,196.41,1383,1.0,2.0
1,1,73,4,2,2,37,20,2,3,3,2,1,1.0,0.14,196.55,3629,0.0,2.0
1,1,74,4,2,3,5,37,3,4,3,1,1,2.0,0.71,197.26,2705,1.0,2.0
1,1,75,4,2,4,1,12,3,5,3,1,1,2.0,0.65,197.91,1379,1.0,1.0
1,1,76,4,1,1,33,49,2,5,5,2,1,2.0,0.72,198.63,1089,1.0,2.0
1,1,77,4,2,1,2,29,2,3,2,1,1,2.0,0.74,199.37,2195,1.0,2.0
1,1,78,4,2,2,51,28,4,2,3,0,0,0.0,0.0,199.37,2561,,
1,1,79,4,1,1,33,47,3,5,5,2,1,2.0,0.66,200.03,2197,1.0,
1,1,80,4,1,2,40,53,3,5,5,2,1,2.0,0.71,200.74,3490,1.0,1.0
1,1,81,4,1,3,27,15,3,2,3,1,1,1.0,0.29,201.03,804,0.0,2.0
1,1,82,4,1,4,18,16,5,3,3,2,1,2.0,0.63,201.66,2201,1.0,2.0
1,1,83,4,1,5,37,8,3,4,4,2,1,2.0,0.62,202.28,3095,1.0,1.0
1,1,84,4,1,6,12,46,2,3,2,1,1,1.0,0.22,202.5,2449,0.0,2.0
2,2,1,1,2,1,19,9,3,2,3,1,1,1.0,0.28,0.28,3605,1.0,
2,2,2,1,2,2,2,22,4,5,4,1,1,1.0,0.14,0.42,1462,1.0,1.0
2,2,3,1,2,3,35,47,3,2,3,1,1,1.0,0.35,0.77,3737,1.0,1.0
2,2,4,1,2,4,37,42,2,4,3,0,0,0.0,0.0,0.77,4069,,
2,2,5,1,1,1,23,35,4,2,2,2,1,1.0,0.37,1.14,5906,1.0,
2,2,6,1,1,2,54,7,2,4,4,2,1,1.0,0.2,1.34,2259,1.0,1.0
2,2,7,1,1,3,44,43,2,3,3,2,1,1.0,0.47,1.81,2748,1.0,1.0
2,2,8,1,2,1,31,42,3,5,3,1,1,1.0,0.47,2.28,2802,1.0,2.0
2,2,9,1,2,2,28,46,3,4,3,1,1,1.0,0.33,2.61,2014,1.0,1.0
2,2,10,1,2,3,45,38,4,5,4,1,1,1.0,0.37,2.98,4424,1.0,1.0
2,2,11,1,1,1,47,5,4,3,3,2,1,1.0,0.35,3.33,3194,1.0,2.0
2,2,12,1,1,2,8,5,5,3,3,2,1,1.0,0.31,3.64,3361,1.0,1.0
2,2,13,1,1,3,51,22,5,3,3,2,1,1.0,0.42,4.06,1775,1.0,1.0
2,2,14,1,1,4,46,41,2,5,5,2,1,1.0,0.26,4.32,3528,1.0,1.0
2,2,15,1,2,1,48,38,3,4,3,1,1,1.0,0.59,4.91,2659,1.0,2.0
2,2,16,1,1,1,19,42,3,2,2,2,1,1.0,0.32,5.23,4735,1.0,2.0
2,2,17,1,1,2,28,29,5,4,4,2,1,1.0,0.35,5.58,2695,1.0,1.0
2,2,18,1,1,3,35,13,5,2,2,2,1,1.0,0.46,6.04,1327,1.0,1.0
2,2,19,1,1,4,22,53,4,3,3,2,1,1.0,0.34,6.38,2376,1.0,1.0
2,2,20,1,1,5,8,32,5,4,4,2,1,1.0,0.32,6.7,1945,1.0,1.0
2,2,21,1,2,1,1,18,2,5,2,1,1,1.0,0.23,6.93,1674,1.0,2.0
2,2,22,1,2,2,54,43,4,2,4,1,1,1.0,0.37,7.3,3682,1.0,1.0
2,2,23,1,2,3,38,3,5,4,5,1,1,1.0,0.18,7.48,4378,1.0,1.0
2,2,24,1,2,4,31,8,5,4,5,1,1,1.0,0.42,7.9,3338,1.0,1.0
2,2,25,1,2,5,19,17,5,4,5,1,1,1.0,0.52,8.42,10736,1.0,1.0
2,2,26,1,2,6,51,3,2,4,2,1,1,1.0,0.25,8.67,1560,1.0,1.0
2,2,27,1,1,1,28,30,3,5,3,1,1,2.0,0.77,9.44,1818,0.0,1.0
2,2,28,1,1,2,24,43,3,5,5,2,1,1.0,0.48,9.92,4217,1.0,2.0
2,2,29,1,1,3,23,29,3,5,5,2,1,1.0,0.15,10.07,4505,1.0,1.0
2,2,30,1,1,4,31,7,5,4,4,2,1,1.0,0.16,10.23,1537,1.0,1.0
2,2,31,1,1,5,12,31,4,2,2,2,1,1.0,0.4,10.63,2448,1.0,1.0
2,2,32,1,1,6,21,26,2,3,3,2,1,1.0,0.29,10.92,5688,1.0,1.0
2,2,33,1,2,1,34,10,5,3,3,2,1,2.0,0.75,11.67,1257,0.0,1.0
2,2,34,1,2,2,19,42,2,4,2,1,1,1.0,0.43,12.1,5431,1.0,2.0
2,2,35,1,1,1,46,27,2,3,3,2,1,1.0,0.42,12.52,4328,1.0,2.0
2,2,36,1,1,2,34,41,3,5,5,2,1,1.0,0.49,13.01,3385,1.0,1.0
2,2,37,1,2,1,39,52,5,3,5,1,1,1.0,0.41,13.42,2028,1.0,2.0
2,2,38,1,2,2,8,40,2,5,2,1,1,1.0,0.47,13.89,2462,1.0,1.0
2,2,39,1,2,3,5,3,3,2,3,1,1,1.0,0.19,14.08,1388,1.0,1.0
2,2,40,1,2,4,28,7,2,3,2,1,1,1.0,0.33,14.41,3719,1.0,1.0
2,2,41,1,2,5,33,4,3,4,3,1,1,1.0,0.31,14.72,3063,1.0,1.0
2,2,42,1,1,1,46,32,3,4,4,2,1,1.0,0.14,14.86,4216,1.0,2.0
2,2,43,1,2,1,21,7,4,3,4,1,1,1.0,0.36,15.22,2119,1.0,2.0
2,2,44,1,2,2,26,54,2,4,2,1,1,1.0,0.21,15.43,1354,1.0,1.0
2,2,45,1,2,3,3,38,5,2,5,1,1,1.0,0.5,15.93,2703,1.0,1.0
2,2,46,1,2,4,13,44,2,5,2,1,1,1.0,0.24,16.17,2931,1.0,1.0
2,2,47,1,2,5,25,17,4,5,4,1,1,1.0,0.4,16.57,2991,1.0,1.0
2,2,48,1,2,6,22,34,5,3,5,1,1,1.0,0.36,16.93,1785,1.0,1.0
2,2,49,1,1,1,17,45,5,2,2,2,1,1.0,0.22,17.15,1937,1.0,2.0
2,2,50,1,1,2,2,26,4,5,5,2,1,1.0,0.08,17.23,2082,1.0,1.0
2,2,51,1,1,3,32,39,3,5,5,2,1,1.0,0.33,17.56,2872,1.0,1.0
2,2,52,1,1,4,31,35,2,3,3,2,1,1.0,0.21,17.77,3959,1.0,1.0
2,2,53,1,1,5,52,1,4,2,2,2,1,1.0,0.41,18.18,3059,1.0,1.0
2,2,54,1,1,6,48,30,2,5,5,2,1,1.0,0.39,18.57,2337,1.0,1.0
2,2,55,1,2,1,9,38,4,3,4,1,1,1.0,0.53,19.1,1568,1.0,2.0
2,2,56,1,2,2,2,26,2,5,2,1,1,1.0,0.4,19.5,3178,1.0,1.0
2,2,57,1,2,3,17,6,3,5,3,1,1,1.0,0.26,19.76,3704,1.0,1.0
2,2,58,1,2,4,25,28,2,3,2,1,1,1.0,0.38,20.14,1088,1.0,1.0
2,2,59,1,2,5,14,35,4,5,4,1,1,1.0,0.21,20.35,4135,1.0,1.0
2,2,60,1,1,1,41,18,4,2,2,2,1,1.0,0.33,20.68,3032,1.0,2.0
2,2,61,1,2,1,36,23,4,2,4,1,1,1.0,0.33,21.01,2793,1.0,2.0
2,2,62,1,2,2,17,28,5,3,5,1,1,1.0,0.33,21.34,3141,1.0,1.0
2,2,63,1,1,1,53,49,5,2,2,2,1,1.0,0.3,21.64,3672,1.0,2.0
2,2,64,1,1,2,49,5,5,4,4,2,1,1.0,0.46,22.1,2801,1.0,1.0
2,2,65,1,2,1,16,12,2,4,2,1,1,1.0,0.11,22.21,2805,1.0,2.0
2,2,66,1,2,2,39,27,3,2,3,1,1,1.0,0.38,22.59,3875,1.0,1.0
2,2,67,1,2,3,33,26,3,4,3,1,1,1.0,0.44,23.03,3354,1.0,1.0
2,2,68,1,1,1,16,39,5,2,2,2,1,1.0,0.42,23.45,3613,1.0,2.0
2,2,69,1,1,2,13,34,2,3,3,2,1,1.0,0.4,23.85,3232,1.0,1.0
2,2,70,1,1,3,40,54,4,3,3,2,1,1.0,0.34,24.19,3289,1.0,1.0
2,2,71,1,1,4,33,43,5,3,3,2,1,1.0,0.41,24.6,2623,1.0,1.0
2,2,72,1,1,5,41,30,4,2,2,2,1,1.0,0.4,25.0,3447,1.0,1.0
2,2,73,1,2,1,50,31,3,4,3,1,1,1.0,0.3,25.3,4238,1.0,2.0
2,2,74,1,1,1,49,30,2,4,4,2,1,1.0,0.29,25.59,3931,1.0,2.0
2,2,75,1,1,2,51,52,4,5,5,2,1,1.0,0.3,25.89,3752,1.0,1.0
2,2,76,1,1,3,53,20,4,3,3,2,1,1.0,0.16,26.05,2880,1.0,1.0
2,2,77,1,1,4,5,17,3,2,2,2,1,1.0,0.31,26.36,3215,1.0,1.0
2,2,78,1,2,1,19,30,5,2,5,1,1,1.0,0.35,26.71,3175,1.0,2.0
2,2,79,1,2,2,50,19,2,5,2,1,1,1.0,0.37,27.08,2704,1.0,1.0
2,2,80,1,2,3,8,22,4,3,4,1,1,1.0,0.5,27.58,5968,1.0,1.0
2,2,81,1,2,4,26,29,3,2,3,1,1,1.0,0.29,27.87,1880,1.0,1.0
2,2,82,1,1,1,35,37,4,5,5,2,1,1.0,0.41,28.28,3324,1.0,2.0
2,2,83,1,1,2,51,30,3,4,4,2,1,1.0,0.43,28.71,4178,1.0,1.0
2,2,84,1,1,3,51,48,5,2,2,2,1,1.0,0.44,29.15,2279,1.0,1.0
2,2,1,2,2,1,49,12,3,5,3,1,1,1.0,0.22,29.37,3474,1.0,
2,2,2,2,2,2,26,27,5,3,5,1,1,1.0,0.36,29.73,3502,1.0,1.0
2,2,3,2,2,3,29,27,4,3,4,1,1,1.0,0.36,30.09,2426,1.0,1.0
2,2,4,2,1,1,31,44,3,5,5,2,1,1.0,0.21,30.3,2042,1.0,2.0
2,2,5,2,1,2,24,30,4,3,3,2,1,1.0,0.25,30.55,4818,1.0,1.0
2,2,6,2,1,3,18,37,5,4,4,2,1,1.0,0.46,31.01,3065,1.0,1.0
2,2,7,2,2,1,39,32,5,4,5,1,1,1.0,0.32,31.33,3120,1.0,2.0
2,2,8,2,2,2,10,44,4,3,4,1,1,1.0,0.38,31.71,1152,1.0,1.0
2,2,9,2,1,1,34,49,5,4,4,2,1,1.0,0.34,32.05,2226,1.0,2.0
2,2,10,2,2,1,35,26,4,5,4,1,1,1.0,0.26,32.31,1167,1.0,2.0
2,2,11,2,2,2,2,8,4,2,4,1,1,1.0,0.27,32.58,4391,1.0,1.0
2,2,12,2,2,3,49,48,4,5,4,1,1,1.0,0.39,32.97,2088,1.0,1.0
2,2,13,2,2,4,29,43,3,5,3,1,1,1.0,0.22,33.19,4521,1.0,1.0
2,2,14,2,2,5,5,12,5,4,5,1,1,1.0,0.43,33.62,4153,1.0,1.0
2,2,15,2,2,6,50,2,2,5,2,1,1,1.0,0.4,34.02,1482,1.0,1.0
2,2,16,2,1,1,43,35,2,4,4,2,1,1.0,0.24,34.26,2696,1.0,2.0
2,2,17,2,1,2,27,4,4,5,5,2,1,1.0,0.3,34.56,6448,1.0,1.0
2,2,18,2,1,3,5,44,3,2,2,2,1,1.0,0.19,34.75,2512,1.0,1.0
2,2,19,2,1,4,53,34,3,4,4,2,1,1.0,0.07,34.82,2935,1.0,1.0
2,2,20,2,2,1,17,48,4,2,4,1,1,1.0,0.45,35.27,3001,1.0,2.0
2,2,21,2,2,2,14,9,3,2,3,1,1,1.0,0.27,35.54,4611,1.0,1.0
2,2,22,2,2,3,11,3,2,3,2,1,1,1.0,0.37,35.91,1256,1.0,1.0
2,2,23,2,2,4,20,8,4,5,5,2,1,2.0,0.69,36.6,2687,0.0,2.0
2,2,24,2,2,5,24,23,3,4,3,1,1,1.0,0.34,36.94,3513,1.0,2.0
2,2,25,2,1,1,18,4,5,3,3,2,1,1.0,0.21,37.15,2348,1.0,2.0
2,2,26,2,1,2,2,24,3,5,3,1,1,2.0,0.56,37.71,1496,0.0,2.0
2,2,27,2,1,3,17,43,4,5,5,2,1,1.0,0.29,38.0,3823,1.0,2.0
2,2,28,2,1,4,44,15,2,5,2,1,1,2.0,0.53,38.53,2600,0.0,2.0
2,2,29,2,1,5,4,20,2,3,2,1,1,2.0,0.54,39.07,3854,0.0,1.0
2,2,30,2,1,6,12,19,5,4,5,1,1,2.0,0.84,39.91,6023,0.0,1.0
2,2,31,2,2,1,13,18,2,4,4,2,1,2.0,0.67,40.58,5696,0.0,2.0
2,2,32,2,2,2,36,43,5,2,2,2,1,2.0,0.52,41.1,2321,0.0,1.0
2,2,33,2,2,3,46,5,3,4,4,2,1,2.0,0.66,41.76,4184,0.0,1.0
2,2,34,2,2,4,23,28,2,3,3,2,1,2.0,0.53,42.29,1630,0.0,1.0
2,2,35,2,1,1,18,7,2,5,2,1,1,2.0,0.51,42.8,3890,0.0,2.0
2,2,36,2,1,2,45,6,4,3,4,1,1,2.0,0.64,43.44,5337,0.0,1.0
2,2,37,2,2,1,6,27,3,4,4,2,1,2.0,0.78,44.22,3050,0.0,2.0
2,2,38,2,1,1,25,36,2,5,2,1,1,2.0,0.68,44.9,3393,0.0,2.0
2,2,39,2,1,2,24,44,3,5,3,1,1,2.0,0.74,45.64,2209,0.0,1.0
2,2,40,2,1,3,9,2,5,3,5,1,1,2.0,0.53,46.17,8875,0.0,1.0
2,2,41,2,1,4,18,3,4,2,4,1,1,2.0,0.61,46.78,4241,0.0,1.0
2,2,42,2,1,5,39,52,3,2,3,1,1,2.0,0.64,47.42,4330,0.0,1.0
2,2,43,2,2,1,50,12,2,3,3,2,1,2.0,0.52,47.94,2413,0.0,2.0
2,2,44,2,1,1,41,47,5,4,5,1,1,2.0,0.51,48.45,4193,0.0,2.0
2,2,45,2,1,2,48,29,2,5,2,1,1,2.0,0.78,49.23,3463,0.0,1.0
2,2,46,2,1,3,29,50,4,2,4,1,1,2.0,0.67,49.9,2832,0.0,1.0
2,2,47,2,1,4,49,44,5,2,5,1,1,2.0,0.59,50.49,4048,0.0,1.0
2,2,48,2,2,1,4,17,5,4,4,2,1,2.0,0.76,51.25,4055,0.0,2.0
2,2,49,2,2,2,45,37,4,5,5,2,1,2.0,0.69,51.94,3609,0.0,1.0
2,2,50,2,2,3,14,3,5,3,3,2,1,2.0,0.55,52.49,4008,0.0,1.0
2,2,51,2,2,4,46,2,2,4,2,1,1,1.0,0.49,52.98,2105,1.0,2.0
2,2,52,2,2,5,4,46,4,3,3,2,1,2.0,0.7,53.68,1591,0.0,2.0
2,2,53,2,1,1,48,13,3,4,3,1,1,2.0,0.84,54.52,3239,0.0,2.0
2,2,54,2,1,2,3,16,2,5,2,1,1,2.0,0.8,55.32,6369,0.0,1.0
2,2,55,2,1,3,14,26,3,5,3,1,1,2.0,0.59,55.91,6242,0.0,1.0
2,2,56,2,1,4,13,10,3,4,3,1,1,2.0,0.51,56.42,1666,0.0,1.0
2,2,57,2,1,5,46,6,3,2,3,1,1,2.0,0.66,57.08,1786,0.0,1.0
2,2,58,2,2,1,50,37,4,3,3,2,1,2.0,0.63,57.71,3289,0.0,2.0
2,2,59,2,2,2,31,27,4,2,2,2,1,2.0,0.57,58.28,2180,0.0,1.0
2,2,60,2,2,3,18,6,5,2,2,2,1,2.0,0.73,59.01,8064,0.0,1.0
2,2,61,2,2,4,12,4,5,2,2,2,1,2.0,0.84,59.85,4201,0.0,1.0
2,2,62,2,1,1,12,30,4,2,4,1,1,2.0,0.6,60.45,4655,0.0,2.0
2,2,63,2,2,1,28,46,2,4,4,2,1,2.0,0.57,61.02,1778,0.0,2.0
2,2,64,2,2,2,38,19,2,5,5,2,1,2.0,0.64,61.66,3370,0.0,1.0
2,2,65,2,1,1,31,20,4,5,4,1,1,2.0,0.75,62.41,2912,0.0,2.0
2,2,66,2,1,2,31,34,3,5,3,1,1,2.0,0.57,62.98,14718,0.0,1.0
2,2,67,2,2,1,3,7,2,3,3,2,1,2.0,0.53,63.51,3481,0.0,2.0
2,2,68,2,2,2,4,53,5,2,2,2,1,2.0,0.65,64.16,2850,0.0,1.0
2,2,69,2,2,3,24,44,2,4,4,2,1,2.0,0.66,64.82,1903,0.0,1.0
2,2,70,2,2,4,9,13,2,4,4,2,1,2.0,0.72,65.54,3777,0.0,1.0
2,2,71,2,2,5,31,27,2,3,3,2,1,2.0,0.6,66.14,7640,0.0,1.0
2,2,72,2,2,6,36,44,4,2,3,0,0,0.0,0.0,66.14,2256,,
2,2,73,2,1,1,4,18,3,4,2,0,0,0.0,0.0,66.14,2608,,
2,2,74,2,1,2,23,24,5,3,5,1,1,2.0,0.65,66.79,3411,0.0,
2,2,75,2,1,3,14,29,3,2,3,1,1,2.0,0.62,67.41,2178,0.0,1.0
2,2,76,2,2,1,44,17,2,3,3,2,1,2.0,0.66,68.07,5439,0.0,2.0
2,2,77,2,2,2,9,29,3,2,2,2,1,2.0,0.85,68.92,5295,0.0,1.0
2,2,78,2,2,3,31,22,4,3,3,2,1,2.0,0.6,69.52,2800,0.0,1.0
2,2,79,2,1,1,34,1,5,2,5,1,1,2.0,0.51,70.03,4856,0.0,2.0
2,2,80,2,1,2,34,26,5,3,5,1,1,2.0,0.72,70.75,8611,0.0,1.0
2,2,81,2,1,3,7,24,5,2,5,1,1,2.0,0.56,71.31,2866,0.0,1.0
2,2,82,2,1,4,28,44,5,3,5,1,1,2.0,0.67,71.98,2151,0.0,1.0
2,2,83,2,1,5,11,47,3,2,3,1,1,2.0,0.59,72.57,6817,0.0,1.0
2,2,84,2,1,6,28,43,2,4,2,1,1,2.0,0.73,73.3,5992,0.0,1.0
2,2,1,3,1,1,3,24,4,2,4,1,1,2.0,0.73,74.03,5889,0.0,
2,2,2,3,1,2,24,46,2,4,2,1,1,2.0,0.64,74.67,7110,0.0,1.0
2,2,3,3,1,3,43,51,4,5,4,1,1,2.0,0.42,75.09,2088,0.0,1.0
2,2,4,3,1,4,45,30,2,3,2,1,1,2.0,0.68,75.77,5186,0.0,1.0
2,2,5,3,2,1,7,38,3,4,4,2,1,2.0,0.85,76.62,3177,0.0,2.0
2,2,6,3,2,2,38,2,5,4,4,2,1,2.0,0.79,77.41,4861,0.0,1.0
2,2,7,3,2,3,46,35,3,5,5,2,1,2.0,0.48,77.89,5336,0.0,1.0
2,2,8,3,2,4,16,1,2,3,3,2,1,2.0,0.66,78.55,5440,0.0,1.0
2,2,9,3,1,1,53,35,4,2,4,1,1,2.0,0.59,79.14,4249,0.0,2.0
2,2,10,3,1,2,51,35,4,3,4,1,1,2.0,0.55,79.69,5881,0.0,1.0
2,2,11,3,2,1,36,47,3,4,4,2,1,2.0,0.52,80.21,2144,0.0,2.0
2,2,12,3,2,2,17,44,2,5,5,2,1,2.0,0.7,80.91,6551,0.0,1.0
2,2,13,3,1,1,10,30,2,5,2,1,1,2.0,0.62,81.53,2033,0.0,2.0
2,2,14,3,1,2,33,10,4,5,4,1,1,2.0,0.67,82.2,5471,0.0,1.0
2,2,15,3,1,3,51,2,2,5,2,1,1,2.0,0.62,82.82,2218,0.0,1.0
2,2,16,3,1,4,44,39,3,5,3,1,1,2.0,0.61,83.43,2815,0.0,1.0
2,2,17,3,1,5,18,31,3,5,3,1,1,2.0,0.71,84.14,4192,0.0,1.0
2,2,18,3,2,1,48,25,3,2,3,1,1,1.0,0.42,84.56,3120,1.0,1.0
2,2,19,3,2,2,1,10,4,3,3,2,1,2.0,0.92,85.48,1671,0.0,2.0
2,2,20,3,2,3,12,38,4,5,5,2,1,2.0,0.51,85.99,11344,0.0,1.0
2,2,21,3,1,1,20,36,2,3,3,2,1,1.0,0.21,86.2,2311,1.0,1.0
2,2,22,3,2,1,48,16,4,2,2,2,1,2.0,0.79,86.99,4256,0.0,1.0
2,2,23,3,2,2,17,15,2,5,5,2,1,2.0,0.62,87.61,5711,0.0,1.0
2,2,24,3,2,3,17,33,2,5,5,2,1,2.0,0.5,88.11,2097,0.0,1.0
2,2,25,3,2,4,24,53,4,5,5,2,1,2.0,0.7,88.81,1531,0.0,1.0
2,2,26,3,2,5,47,29,4,2,2,2,1,2.0,0.85,89.66,5218,0.0,1.0
2,2,27,3,1,1,2,14,4,2,4,1,1,2.0,0.75,90.41,5316,0.0,2.0
2,2,28,3,1,2,3,18,3,5,3,1,1,2.0,0.9,91.31,3495,0.0,1.0
2,2,29,3,1,3,27,20,4,3,4,1,1,2.0,0.73,92.04,5825,0.0,1.0
2,2,30,3,1,4,30,39,4,3,4,1,1,2.0,0.89,92.93,5247,0.0,1.0
2,2,31,3,1,5,54,27,5,3,5,1,1,2.0,0.63,93.56,2849,0.0,1.0
2,2,32,3,1,6,32,22,4,3,4,1,1,2.0,0.53,94.09,6313,0.0,1.0
2,2,33,3,2,1,37,53,5,3,3,2,1,2.0,0.64,94.73,4872,0.0,2.0
2,2,34,3,1,1,25,54,5,4,5,1,1,2.0,0.81,95.54,2424,0.0,2.0
2,2,35,3,1,2,50,32,2,4,2,1,1,2.0,0.54,96.08,4111,0.0,1.0
2,2,36,3,1,3,43,34,5,4,5,1,1,2.0,0.74,96.82,2775,0.0,1.0
2,2,37,3,2,1,47,45,3,4,4,2,1,2.0,0.6,97.42,6585,0.0,2.0
2,2,38,3,2,2,38,12,3,2,2,2,1,2.0,0.73,98.15,5679,0.0,1.0
2,2,39,3,2,3,43,33,5,2,2,2,1,2.0,0.54,98.69,3577,0.0,1.0
2,2,40,3,2,4,12,11,5,3,3,2,1,2.0,0.68,99.37,3745,0.0,1.0
2,2,41,3,2,5,2,14,2,3,3,2,1,2.0,0.43,99.8,1874,0.0,1.0
2,2,42,3,2,6,38,54,5,2,2,2,1,2.0,0.61,100.41,5256,0.0,1.0
2,2,43,3,1,1,30,22,2,3,2,1,1,2.0,0.72,101.13,4411,0.0,2.0
2,2,44,3,1,2,45,44,3,2,3,1,1,2.0,0.63,101.76,4831,0.0,1.0
2,2,45,3,1,3,47,43,4,3,4,1,1,2.0,0.81,102.57,1834,0.0,1.0
2,2,46,3,1,4,4,28,4,2,4,1,1,2.0,0.59,103.16,7015,0.0,1.0
2,2,47,3,2,1,31,51,3,4,4,2,1,2.0,0.39,103.55,2073,0.0,2.0
2,2,48,3,2,2,2,16,5,4,4,2,1,2.0,0.52,104.07,6113,0.0,1.0
2,2,49,3,2,3,33,12,2,5,5,2,1,2.0,0.79,104.86,5119,0.0,1.0
2,2,50,3,1,1,47,39,5,3,5,1,1,2.0,0.65,105.51,3743,0.0,2.0
2,2,51,3,2,1,19,32,5,3,3,2,1,2.0,0.71,106.22,4728,0.0,2.0
2,2,52,3,2,2,5,31,2,5,5,2,1,2.0,0.78,107.0,5224,0.0,1.0
2,2,53,3,2,3,26,42,2,4,4,2,1,2.0,0.42,107.42,4193,0.0,1.0
2,2,54,3,2,4,8,42,5,3,3,2,1,2.0,0.59,108.01,2690,0.0,1.0
2,2,55,3,2,5,41,23,3,5,5,2,1,2.0,0.58,108.59,5049,0.0,1.0
2,2,56,3,2,6,48,18,5,2,2,2,1,2.0,0.55,109.14,4208,0.0,1.0
2,2,57,3,1,1,48,35,2,4,2,1,1,2.0,0.65,109.79,1913,0.0,2.0
2,2,58,3,1,2,9,7,2,4,2,1,1,2.0,0.85,110.64,2600,0.0,1.0
2,2,59,3,1,3,16,53,3,4,4,2,1,1.0,0.33,110.97,4720,1.0,2.0
2,2,60,3,1,4,1,11,4,5,4,1,1,2.0,0.81,111.78,4537,0.0,2.0
2,2,61,3,1,5,12,34,5,2,5,1,1,2.0,0.58,112.36,3571,0.0,1.0
2,2,62,3,1,6,20,51,5,2,5,1,1,2.0,0.67,113.03,2307,0.0,1.0
2,2,63,3,2,1,41,39,5,3,3,2,1,2.0,0.57,113.6,4543,0.0,2.0
2,2,64,3,2,2,4,22,5,2,2,2,1,2.0,0.74,114.34,5503,0.0,1.0
2,2,65,3,2,3,29,27,5,2,2,2,1,2.0,0.64,114.98,3538,0.0,1.0
2,2,66,3,2,4,35,52,3,2,2,2,1,2.0,0.72,115.7,6199,0.0,1.0
2,2,67,3,1,1,38,8,4,5,4,1,1,2.0,0.75,116.45,1897,0.0,2.0
2,2,68,3,1,2,48,13,4,5,4,1,1,2.0,0.66,117.11,1472,0.0,1.0
2,2,69,3,1,3,41,20,3,5,3,1,1,2.0,0.77,117.88,4571,0.0,1.0
2,2,70,3,1,4,1,43,2,3,2,1,1,2.0,0.94,118.82,6882,0.0,1.0
2,2,71,3,1,5,38,17,3,2,3,1,1,2.0,0.73,119.55,5600,0.0,1.0
2,2,72,3,2,1,6,20,3,5,5,2,1,2.0,0.67,120.22,5368,0.0,2.0
2,2,73,3,2,2,29,16,4,3,3,2,1,2.0,0.77,120.99,1330,0.0,1.0
2,2,74,3,1,1,2,20,2,4,2,1,1,2.0,0.67,121.66,4217,0.0,2.0
2,2,75,3,1,2,17,33,2,3,2,1,1,2.0,0.54,122.2,4993,0.0,1.0
2,2,76,3,1,3,35,6,4,2,4,1,1,2.0,0.72,122.92,3268,0.0,1.0
2,2,77,3,2,1,37,46,3,4,4,2,1,2.0,0.67,123.59,5801,0.0,2.0
2,2,78,3,2,2,1,28,3,2,2,2,1,2.0,0.63,124.22,4904,0.0,1.0
2,2,79,3,2,3,48,50,5,4,4,2,1,2.0,0.82,125.04,3444,0.0,1.0
2,2,80,3,2,4,20,11,3,2,2,2,1,2.0,0.89,125.93,1479,0.0,1.0
2,2,81,3,2,5,50,44,3,4,4,2,1,2.0,0.61,126.54,1647,0.0,1.0
2,2,82,3,1,1,19,20,2,4,2,1,1,2.0,0.68,127.22,6566,0.0,2.0
2,2,83,3,1,2,10,31,5,4,5,1,1,2.0,0.57,127.79,1185,0.0,1.0
2,2,84,3,2,1,5,15,5,4,4,2,1,2.0,0.75,128.54,8890,0.0,2.0
3,2,1,1,1,1,13,5,5,4,3,0,0,0.0,0.0,0.0,3629,,
3,2,2,1,1,2,23,51,2,3,3,2,1,1.0,0.28,0.28,2713,1.0,
3,2,3,1,1,3,39,15,5,4,4,2,1,1.0,0.14,0.42,4594,1.0,1.0
3,2,4,1,2,1,26,2,2,3,2,1,1,1.0,0.35,0.77,4708,1.0,2.0
3,2,5,1,2,2,54,44,2,5,2,1,1,1.0,0.37,1.14,1716,1.0,1.0
3,2,6,1,2,3,29,3,5,3,3,2,1,2.0,0.53,1.67,5954,0.0,2.0
3,2,7,1,2,4,4,15,3,4,4,2,1,2.0,0.81,2.48,2355,0.0,1.0
3,2,8,1,1,1,28,30,5,4,4,2,1,1.0,0.47,2.95,4486,1.0,1.0
3,2,9,1,2,1,2,5,2,5,5,2,1,2.0,0.66,3.61,3587,0.0,1.0
3,2,10,1,2,2,36,43,5,2,2,2,1,2.0,0.71,4.32,4213,0.0,1.0
3,2,11,1,2,3,5,46,5,3,5,1,1,1.0,0.35,4.67,2708,1.0,2.0
3,2,12,1,2,4,34,53,3,5,5,2,1,2.0,0.65,5.32,5591,0.0,2.0
3,2,13,1,2,5,3,26,4,5,5,2,1,2.0,0.75,6.07,1956,0.0,1.0
3,2,14,1,2,6,28,5,3,2,2,2,1,2.0,0.6,6.67,2870,0.0,1.0
3,2,15,1,1,1,7,8,3,2,2,2,1,1.0,0.59,7.26,8630,1.0,1.0
3,2,16,1,1,2,2,39,3,2,3,1,1,2.0,0.65,7.91,5192,0.0,2.0
3,2,17,1,1,3,13,5,5,3,5,1,1,2.0,0.68,8.59,4534,0.0,1.0
3,2,18,1,1,4,5,13,4,2,4,1,1,2.0,0.79,9.38,3366,0.0,1.0
3,2,19,1,1,5,52,54,4,2,4,1,1,2.0,0.67,10.05,1400,0.0,1.0
3,2,20,1,2,1,41,34,5,2,4,0,0,0.0,0.0,10.05,3127,,
3,2,21,1,2,2,34,20,5,2,5,1,1,1.0,0.32,10.37,2140,1.0,
3,2,22,1,1,1,10,3,4,2,2,2,1,1.0,0.23,10.6,7412,1.0,2.0
3,2,23,1,1,2,34,30,2,4,4,2,1,1.0,0.37,10.97,9111,1.0,1.0
3,2,24,1,1,3,12,15,4,5,5,2,1,1.0,0.18,11.15,2597,1.0,1.0
3,2,25,1,1,4,52,34,4,5,5,2,1,1.0,0.42,11.57,1574,1.0,1.0
3,2,26,1,1,5,26,46,3,4,4,2,1,1.0,0.52,12.09,2278,1.0,1.0
3,2,27,1,1,6,35,24,4,3,4,1,1,2.0,0.59,12.68,7847,0.0,2.0
3,2,28,1,2,1,30,43,5,4,4,2,1,2.0,0.77,13.45,6022,0.0,2.0
3,2,29,1,2,2,23,6,5,2,2,2,1,2.0,0.81,14.26,4405,0.0,1.0
3,2,30,1,2,3,50,52,5,4,4,2,1,2.0,0.48,14.74,1942,0.0,1.0
3,2,31,1,2,4,8,26,3,2,3,1,1,1.0,0.16,14.9,6262,1.0,2.0
3,2,32,1,2,5,21,23,4,5,5,2,1,2.0,0.73,15.63,3783,0.0,2.0
3,2,33,1,1,1,2,16,3,5,5,2,1,1.0,0.29,15.92,4565,1.0,1.0
3,2,34,1,1,2,50,46,4,3,3,2,1,1.0,0.41,16.33,4182,1.0,1.0
3,2,35,1,1,3,33,27,2,3,3,2,1,1.0,0.43,16.76,2325,1.0,1.0
3,2,36,1,1,4,37,21,3,4,4,2,1,1.0,0.42,17.18,1911,1.0,1.0
3,2,37,1,2,1,48,40,2,4,4,2,1,2.0,0.82,18.0,3271,0.0,1.0
3,2,38,1,1,1,31,6,3,4,4,2,1,1.0,0.41,18.41,2648,1.0,1.0
3,2,39,1,1,2,20,33,4,3,4,1,1,2.0,0.81,19.22,5990,0.0,2.0
3,2,40,1,2,1,46,21,4,2,2,2,1,2.0,0.53,19.75,2391,0.0,2.0
3,2,41,1,2,2,41,5,3,4,4,2,1,2.0,0.66,20.41,2310,0.0,1.0
3,2,42,1,2,3,53,35,5,3,5,1,1,1.0,0.31,20.72,4774,1.0,2.0
3,2,43,1,1,1,49,54,4,3,4,1,1,2.0,0.48,21.2,3574,0.0,1.0
3,2,44,1,1,2,27,8,5,2,2,2,1,1.0,0.36,21.56,2950,1.0,2.0
3,2,45,1,1,3,1,16,3,2,2,2,1,1.0,0.21,21.77,5031,1.0,1.0
3,2,46,1,1,4,30,25,2,3,2,1,1,2.0,0.83,22.6,1510,0.0,2.0
3,2,47,1,2,1,44,16,2,5,5,2,1,2.0,0.57,23.17,5702,0.0,2.0
3,2,48,1,2,2,28,54,3,5,3,1,1,1.0,0.4,23.57,5158,1.0,2.0
3,2,49,1,2,3,34,32,3,5,5,2,1,2.0,0.69,24.26,4647,0.0,2.0
3,2,50,1,1,1,30,12,2,4,4,2,1,1.0,0.22,24.48,2791,1.0,1.0
3,2,51,1,1,2,1,54,2,5,2,1,1,2.0,0.41,24.89,6679,0.0,2.0
3,2,52,1,1,3,40,12,2,3,2,1,1,2.0,0.66,25.55,5799,0.0,1.0
3,2,53,1,2,1,49,19,2,4,4,2,1,2.0,0.55,26.1,1974,0.0,2.0
3,2,54,1,2,2,31,51,3,4,4,2,1,2.0,0.74,26.84,5526,0.0,1.0
3,2,55,1,2,3,9,44,5,3,5,1,1,1.0,0.39,27.23,2614,1.0,2.0
3,2,56,1,2,4,52,31,3,5,5,2,1,2.0,0.87,28.1,1702,0.0,2.0
3,2,57,1,2,5,26,13,5,4,5,1,1,1.0,0.4,28.5,3126,1.0,2.0
3,2,58,1,2,6,1,21,4,5,4,1,1,1.0,0.26,28.76,7782,1.0,1.0
3,2,59,1,1,1,12,33,3,4,3,1,1,2.0,0.71,29.47,1957,0.0,1.0
3,2,60,1,1,2,9,36,5,2,2,2,1,1.0,0.21,29.68,4549,1.0,2.0
3,2,61,1,1,3,22,45,3,5,3,1,1,2.0,0.66,30.34,7160,0.0,2.0
3,2,62,1,1,4,39,34,4,2,4,1,1,2.0,0.66,31.0,4646,0.0,1.0
3,2,63,1,1,5,29,2,2,4,2,1,1,2.0,0.67,31.67,1255,0.0,1.0
3,2,64,1,2,1,39,17,2,5,2,1,1,1.0,0.3,31.97,2359,1.0,1.0
3,2,65,1,2,2,29,40,5,3,5,1,1,1.0,0.46,32.43,3174,1.0,1.0
3,2,66,1,2,3,47,13,4,3,3,2,1,2.0,0.45,32.88,5560,0.0,2.0
3,2,67,1,2,4,22,34,3,5,5,2,1,2.0,0.72,33.6,3814,0.0,1.0
3,2,68,1,1,1,42,41,5,2,2,2,1,1.0,0.44,34.04,3143,1.0,1.0
3,2,69,1,1,2,6,13,3,2,2,2,1,1.0,0.42,34.46,7687,1.0,1.0
3,2,70,1,2,1,32,28,5,4,3,0,0,0.0,0.0,34.46,1510,,
3,2,71,1,2,2,5,39,2,4,4,2,1,2.0,0.74,35.2,4443,0.0,
3,2,72,1,1,1,54,7,4,5,4,1,1,2.0,0.67,35.87,7446,0.0,2.0
3,2,73,1,1,2,3,54,3,2,3,1,1,2.0,0.75,36.62,5511,0.0,1.0
3,2,74,1,1,3,22,28,4,5,4,1,1,2.0,0.73,37.35,3477,0.0,1.0
3,2,75,1,1,4,8,5,2,3,2,1,1,2.0,0.64,37.99,1510,0.0,1.0
3,2,76,1,1,5,42,8,2,4,4,2,1,1.0,0.29,38.28,6855,1.0,2.0
3,2,77,1,1,6,24,49,4,2,2,2,1,1.0,0.3,38.58,1431,1.0,1.0
3,2,78,1,2,1,9,41,4,3,3,2,1,2.0,0.49,39.07,1461,0.0,1.0
3,2,79,1,1,1,17,53,2,5,2,1,1,2.0,0.64,39.71,5175,0.0,2.0
3,2,80,1,2,1,2,18,4,3,3,2,1,2.0,0.68,40.39,5317,0.0,2.0
3,2,81,1,2,2,21,17,2,3,2,1,1,1.0,0.37,40.76,3141,1.0,2.0
3,2,82,1,2,3,14,26,5,3,3,2,1,2.0,0.84,41.6,4167,0.0,2.0
3,2,83,1,2,4,17,7,4,2,4,1,1,1.0,0.29,41.89,2774,1.0,2.0
3,2,84,1,2,5,28,16,2,5,2,1,1,1.0,0.41,42.3,5175,1.0,1.0
3,2,1,2,1,1,35,40,2,3,2,1,1,2.0,0.76,43.06,6328,0.0,
3,2,2,2,1,2,4,36,5,2,5,1,1,2.0,0.78,43.84,6020,0.0,1.0
3,2,3,2,1,3,3,12,2,5,5,2,1,1.0,0.22,44.06,1349,1.0,2.0
3,2,4,2,1,4,35,4,4,3,3,2,1,1.0,0.36,44.42,3287,1.0,1.0
3,2,5,2,2,1,43,22,5,3,3,2,1,2.0,0.7,45.12,3688,0.0,1.0
3,2,6,2,2,2,37,7,4,5,5,2,1,2.0,0.55,45.67,2006,0.0,1.0
3,2,7,2,2,3,33,19,3,5,5,2,1,2.0,0.58,46.25,3574,0.0,1.0
3,2,8,2,2,4,36,13,3,2,3,1,1,1.0,0.46,46.71,3446,1.0,2.0
3,2,9,2,2,5,20,33,3,5,3,1,1,1.0,0.32,47.03,2823,1.0,1.0
3,2,10,2,2,6,45,19,3,2,2,2,1,2.0,0.71,47.74,3878,0.0,2.0
3,2,11,2,1,1,46,38,5,3,5,1,1,2.0,0.68,48.42,8566,0.0,2.0
3,2,12,2,1,2,14,23,5,4,4,2,1,1.0,0.26,48.68,4550,1.0,2.0
3,2,13,2,1,3,5,22,3,5,5,2,1,1.0,0.27,48.95,2278,1.0,1.0
3,2,14,2,1,4,20,23,4,3,3,2,1,1.0,0.39,49.34,2774,1.0,1.0
3,2,15,2,1,5,17,42,2,5,2,1,1,2.0,0.56,49.9,3622,0.0,2.0
3,2,16,2,1,6,40,10,4,2,4,1,1,2.0,0.76,50.66,3622,0.0,1.0
3,2,17,2,2,1,41,32,2,5,2,1,1,1.0,0.4,51.06,2070,1.0,1.0
3,2,18,2,1,1,36,34,4,5,5,2,1,1.0,0.24,51.3,2854,1.0,2.0
3,2,19,2,1,2,43,20,2,3,3,2,1,1.0,0.3,51.6,7319,1.0,1.0
3,2,20,2,2,1,42,23,5,2,2,2,1,2.0,0.53,52.13,1590,0.0,1.0
3,2,21,2,2,2,44,21,5,4,4,2,1,2.0,0.41,52.54,3064,0.0,1.0
3,2,22,2,2,3,47,39,5,4,5,1,1,1.0,0.45,52.99,4374,1.0,2.0
3,2,23,2,2,4,30,12,3,5,5,2,1,2.0,0.61,53.6,5447,0.0,2.0
3,2,24,2,1,1,46,17,5,3,5,1,1,2.0,0.71,54.31,3447,0.0,2.0
3,2,25,2,1,2,18,23,2,3,2,1,1,2.0,0.69,55.0,4231,0.0,1.0
3,2,26,2,1,3,49,52,2,4,4,2,1,1.0,0.34,55.34,9926,1.0,2.0
3,2,27,2,2,1,13,51,3,2,2,2,1,2.0,0.55,55.89,1462,0.0,1.0
3,2,28,2,2,2,45,10,2,4,4,2,1,2.0,0.56,56.45,2488,0.0,1.0
3,2,29,2,2,3,21,25,2,5,5,2,1,2.0,0.62,57.07,1397,0.0,1.0
3,2,30,2,2,4,45,17,2,4,4,2,1,2.0,0.53,57.6,2055,0.0,1.0
3,2,31,2,2,5,19,28,4,3,3,2,1,2.0,0.54,58.14,2327,0.0,1.0
3,2,32,2,1,1,37,41,2,5,5,2,1,1.0,0.51,58.65,2694,1.0,1.0
3,2,33,2,2,1,54,16,3,4,4,2,1,2.0,0.67,59.32,2838,0.0,1.0
3,2,34,2,2,2,10,8,5,2,5,1,1,1.0,0.19,59.51,6918,1.0,2.0
3,2,35,2,1,1,43,31,3,2,2,2,1,1.0,0.33,59.84,1349,1.0,2.0
3,2,36,2,1,2,47,3,2,4,4,2,1,1.0,0.2,60.04,3383,1.0,1.0
3,2,37,2,1,3,8,19,4,5,5,2,1,1.0,0.17,60.21,1623,1.0,1.0
3,2,38,2,1,4,1,15,5,2,2,2,1,1.0,0.3,60.51,2358,1.0,1.0
3,2,39,2,1,5,49,41,2,4,4,2,1,1.0,0.45,60.96,2071,1.0,1.0
3,2,40,2,2,1,51,47,5,4,4,2,1,2.0,0.68,61.64,5781,0.0,1.0
3,2,41,2,2,2,7,27,4,2,4,1,1,1.0,0.41,62.05,2775,1.0,2.0
3,2,42,2,2,3,44,39,5,3,5,1,1,1.0,0.2,62.25,3400,1.0,1.0
3,2,43,2,1,1,30,11,4,2,4,1,1,2.0,0.61,62.86,3653,0.0,1.0
3,2,44,2,1,2,34,38,5,4,4,2,1,1.0,0.3,63.16,2277,1.0,2.0
3,2,45,2,1,3,38,27,3,4,3,1,1,2.0,0.52,63.68,4535,0.0,2.0
3,2,46,2,1,4,24,40,4,5,4,1,1,2.0,0.51,64.19,3975,0.0,1.0
3,2,47,2,1,5,36,29,4,5,4,1,1,2.0,0.78,64.97,3846,0.0,1.0
3,2,48,2,1,6,24,15,4,5,4,1,1,2.0,0.67,65.64,5429,0.0,1.0
3,2,49,2,2,1,34,37,3,5,3,1,1,1.0,0.26,65.9,2359,1.0,1.0
3,2,50,2,2,2,47,52,2,4,4,2,1,2.0,0.76,66.66,4790,0.0,2.0
3,2,51,2,1,1,49,44,5,3,3,2,1,1.0,0.36,67.02,3959,1.0,1.0
3,2,52,2,2,1,38,21,5,2,2,2,1,2.0,0.55,67.57,5718,0.0,1.0
3,2,53,2,2,2,6,54,4,2,2,2,1,2.0,0.82,68.39,1878,0.0,1.0
3,2,54,2,2,3,36,14,5,2,2,2,1,2.0,0.7,69.09,967,0.0,1.0
3,2,55,2,1,1,30,54,3,5,5,2,1,1.0,0.51,69.6,9302,1.0,1.0
3,2,56,2,1,2,31,17,2,3,2,1,1,2.0,0.8,70.4,1143,0.0,2.0
3,2,57,2,1,3,15,28,2,5,2,1,1,2.0,0.59,70.99,5542,0.0,1.0
3,2,58,2,1,4,23,30,3,4,3,1,1,2.0,0.51,71.5,4503,0.0,1.0
3,2,59,2,1,5,40,35,2,3,2,1,1,2.0,0.66,72.16,3989,0.0,1.0
3,2,60,2,2,1,36,54,3,4,4,2,1,2.0,0.63,72.79,3511,0.0,2.0
3,2,61,2,2,2,5,53,2,3,3,2,1,2.0,0.57,73.36,4260,0.0,1.0
3,2,62,2,2,3,42,25,2,4,4,2,1,2.0,0.73,74.09,3351,0.0,1.0
3,2,63,2,2,4,49,17,3,4,4,2,1,2.0,0.84,74.93,3030,0.0,1.0
3,2,64,2,2,5,35,34,4,3,3,2,1,2.0,0.6,75.53,4836,0.0,1.0
3,2,65,2,1,1,1,29,4,2,2,2,1,1.0,0.23,75.76,1125,1.0,1.0
3,2,66,2,1,2,50,20,5,4,5,1,1,2.0,0.64,76.4,5446,0.0,2.0
3,2,67,2,1,3,9,12,4,2,2,2,1,1.0,0.41,76.81,6518,1.0,2.0
3,2,68,2,2,1,43,34,3,4,3,1,1,1.0,0.23,77.04,3877,1.0,2.0
3,2,69,2,1,1,20,29,4,2,2,2,1,1.0,0.19,77.23,1302,1.0,2.0
3,2,70,2,1,2,34,14,5,3,5,1,1,2.0,0.65,77.88,6679,0.0,2.0
3,2,71,2,2,1,13,54,4,3,3,2,1,2.0,0.66,78.54,7431,0.0,2.0
3,2,72,2,2,2,40,31,3,2,2,2,1,2.0,0.72,79.26,1495,0.0,1.0
3,2,73,2,2,3,18,4,5,2,5,1,1,1.0,0.26,79.52,6166,1.0,2.0
3,2,74,2,2,4,2,22,5,4,4,2,1,2.0,0.65,80.17,4276,0.0,2.0
3,2,75,2,1,1,45,50,2,3,3,2,1,1.0,0.28,80.45,3399,1.0,1.0
3,2,76,2,1,2,4,2,4,5,4,1,1,2.0,0.66,81.11,7622,0.0,2.0
3,2,77,2,1,3,30,32,2,5,5,2,1,1.0,0.51,81.62,3094,1.0,2.0
3,2,78,2,1,4,38,30,3,2,3,1,1,2.0,0.6,82.22,7318,0.0,2.0
3,2,79,2,2,1,1,21,3,2,2,2,1,2.0,0.51,82.73,5991,0.0,2.0
3,2,80,2,2,2,44,34,4,3,4,1,1,1.0,0.39,83.12,8422,1.0,2.0
3,2,81,2,2,3,52,19,4,3,4,1,1,1.0,0.23,83.35,1543,1.0,1.0
3,2,82,2,2,4,25,1,5,3,3,2,1,2.0,0.67,84.02,3335,0.0,2.0
3,2,83,2,2,5,48,36,3,4,3,1,1,1.0,0.26,84.28,4118,1.0,2.0
3,2,84,2,2,6,48,42,3,5,3,1,1,1.0,0.4,84.68,3557,1.0,1.0
3,2,1,3,2,1,32,25,5,2,2,2,1,2.0,0.73,85.41,2167,0.0,
3,2,2,3,2,2,42,54,2,4,2,1,1,1.0,0.31,85.72,3397,1.0,2.0
3,2,3,3,2,3,35,42,4,5,4,1,1,1.0,0.09,85.81,3653,1.0,1.0
3,2,4,3,2,4,5,9,4,5,5,2,1,2.0,0.68,86.49,4279,0.0,2.0
3,2,5,3,2,5,33,41,4,3,3,2,1,2.0,0.85,87.34,7990,0.0,1.0
3,2,6,3,1,1,32,30,2,5,2,1,1,2.0,0.79,88.13,2279,0.0,2.0
3,2,7,3,1,2,20,25,3,5,3,1,1,2.0,0.48,88.61,3207,0.0,1.0
3,2,8,3,1,3,2,23,4,2,2,2,1,1.0,0.32,88.93,5623,1.0,2.0
3,2,9,3,1,4,4,45,2,4,4,2,1,1.0,0.25,89.18,7206,1.0,1.0
3,2,10,3,1,5,13,16,4,3,3,2,1,1.0,0.21,89.39,3510,1.0,1.0
3,2,11,3,2,1,27,24,5,4,5,1,1,1.0,0.19,89.58,1670,1.0,2.0
3,2,12,3,1,1,35,49,5,3,3,2,1,1.0,0.37,89.95,1751,1.0,2.0
3,2,13,3,1,2,45,39,3,4,4,2,1,1.0,0.28,90.23,3717,1.0,1.0
3,2,14,3,1,3,33,38,5,2,2,2,1,1.0,0.34,90.57,2455,1.0,1.0
3,2,15,3,1,4,53,19,3,5,5,2,1,1.0,0.29,90.86,2582,1.0,1.0
3,2,16,3,1,5,8,24,2,3,2,1,1,2.0,0.61,91.47,1862,0.0,2.0
3,2,17,3,1,6,27,1,4,3,4,1,1,2.0,0.71,92.18,2391,0.0,1.0
3,2,18,3,2,1,14,41,5,2,5,1,1,1.0,0.42,92.6,2503,1.0,1.0
3,2,19,3,2,2,27,50,3,4,3,1,1,1.0,0.58,93.18,3767,1.0,1.0
3,2,20,3,2,3,39,52,2,4,2,1,1,1.0,0.17,93.35,3255,1.0,1.0
3,2,21,3,2,4,15,14,5,2,5,1,1,1.0,0.21,93.56,2615,1.0,1.0
3,2,22,3,2,5,20,40,3,5,3,1,1,1.0,0.46,94.02,2566,1.0,1.0
3,2,23,3,2,6,26,19,5,4,5,1,1,1.0,0.29,94.31,1446,1.0,1.0
3,2,24,3,1,1,30,18,3,5,3,1,1,2.0,0.5,94.81,1991,0.0,1.0
3,2,25,3,1,2,43,18,3,2,3,1,1,2.0,0.7,95.51,2133,0.0,1.0
3,2,26,3,2,1,50,9,4,2,4,1,1,1.0,0.52,96.03,3462,1.0,1.0
3,2,27,3,2,2,40,51,2,5,5,2,1,2.0,0.75,96.78,1462,0.0,2.0
3,2,28,3,2,3,41,23,4,2,2,2,1,2.0,0.9,97.68,2006,0.0,1.0
3,2,29,3,2,4,34,23,4,3,3,2,1,2.0,0.73,98.41,4918,0.0,1.0
3,2,30,3,1,1,4,41,4,3,3,2,1,1.0,0.55,98.96,3478,1.0,1.0
3,2,31,3,1,2,4,41,2,5,5,2,1,1.0,0.29,99.25,2566,1.0,1.0
3,2,32,3,1,3,8,49,3,4,4,2,1,1.0,0.2,99.45,1573,1.0,1.0
3,2,33,3,1,4,5,2,5,2,2,2,1,1.0,0.31,99.76,1894,1.0,1.0
3,2,34,3,2,1,17,48,2,4,4,2,1,2.0,0.81,100.57,2615,0.0,1.0
3,2,35,3,2,2,20,15,2,5,5,2,1,2.0,0.54,101.11,966,0.0,1.0
3,2,36,3,2,3,12,46,3,5,5,2,1,2.0,0.74,101.85,1190,0.0,1.0
3,2,37,3,1,1,43,3,4,5,5,2,1,1.0,0.26,102.11,2486,1.0,1.0
3,2,38,3,2,1,41,8,3,2,2,2,1,2.0,0.73,102.84,1559,0.0,1.0
3,2,39,3,2,2,22,6,2,5,5,2,1,2.0,0.54,103.38,1814,0.0,1.0
3,2,40,3,1,1,7,10,2,4,4,2,1,1.0,0.34,103.72,1096,1.0,1.0
3,2,41,3,1,2,5,17,4,2,2,2,1,1.0,0.1,103.82,1478,1.0,1.0
3,2,42,3,1,3,49,50,2,3,2,1,1,2.0,0.61,104.43,1271,0.0,2.0
3,2,43,3,2,1,36,2,2,3,2,1,1,1.0,0.39,104.82,2102,1.0,1.0
3,2,44,3,2,2,29,20,3,2,2,2,1,2.0,0.63,105.45,2229,0.0,2.0
3,2,45,3,2,3,24,35,4,5,5,2,1,2.0,0.81,106.26,1767,0.0,1.0
3,2,46,3,2,4,49,52,5,4,4,2,1,2.0,0.59,106.85,1110,0.0,1.0
3,2,47,3,1,1,23,19,3,4,3,1,1,2.0,0.39,107.24,2805,0.0,2.0
3,2,48,3,2,1,51,15,5,4,5,1,1,1.0,0.19,107.43,3285,1.0,1.0
3,2,49,3,2,2,12,54,5,2,2,2,1,2.0,0.79,108.22,902,0.0,2.0
3,2,50,3,2,3,23,12,5,3,3,2,1,2.0,0.65,108.87,5431,0.0,1.0
3,2,51,3,1,1,23,19,2,4,2,1,1,2.0,0.71,109.58,1846,0.0,2.0
3,2,52,3,1,2,14,31,4,3,4,1,1,2.0,0.78,110.36,1318,0.0,1.0
3,2,53,3,2,1,4,34,2,5,2,1,1,1.0,0.08,110.44,904,1.0,1.0
3,2,54,3,2,2,8,10,5,4,5,1,1,1.0,0.26,110.7,997,1.0,1.0
3,2,55,3,2,3,4,10,4,5,4,1,1,1.0,0.25,110.95,2360,1.0,1.0
3,2,56,3,2,4,15,49,3,4,3,1,1,1.0,0.21,111.16,2102,1.0,1.0
3,2,57,3,2,5,36,21,3,2,3,1,1,1.0,0.31,111.47,1767,1.0,1.0
3,2,58,3,2,6,37,42,4,2,2,2,1,2.0,0.85,112.32,2567,0.0,2.0
3,2,59,3,1,1,41,1,2,3,3,2,1,1.0,0.33,112.65,1926,1.0,1.0
3,2,60,3,1,2,31,49,2,3,3,2,1,1.0,0.48,113.13,1799,1.0,1.0
3,2,61,3,1,3,2,43,3,2,2,2,1,1.0,0.25,113.38,1862,1.0,1.0
3,2,62,3,2,1,51,36,5,2,2,2,1,2.0,0.67,114.05,2453,0.0,1.0
3,2,63,3,1,1,41,48,3,5,5,2,1,1.0,0.24,114.29,838,1.0,1.0
3,2,64,3,1,2,9,7,2,5,5,2,1,1.0,0.4,114.69,2087,1.0,1.0
3,2,65,3,1,3,22,23,4,2,2,2,1,1.0,0.3,114.99,2967,1.0,1.0
3,2,66,3,1,4,52,40,3,2,3,1,1,2.0,0.72,115.71,1174,0.0,2.0
3,2,67,3,2,1,23,47,3,2,3,1,1,1.0,0.41,116.12,1143,1.0,1.0
3,2,68,3,2,2,27,21,4,3,4,1,1,1.0,0.32,116.44,2806,1.0,1.0
3,2,69,3,2,3,52,31,2,3,2,1,1,1.0,0.44,116.88,758,1.0,1.0
3,2,70,3,2,4,8,41,4,2,4,1,1,1.0,0.61,117.49,1575,1.0,1.0
3,2,71,3,2,5,37,15,3,4,3,1,1,1.0,0.39,117.88,2119,1.0,1.0
3,2,72,3,1,1,28,23,5,3,5,1,1,2.0,0.67,118.55,1653,0.0,1.0
3,2,73,3,1,2,38,32,4,5,5,2,1,1.0,0.44,118.99,1525,1.0,2.0
3,2,74,3,1,3,28,46,5,4,4,2,1,1.0,0.34,119.33,2725,1.0,1.0
3,2,75,3,1,4,50,42,2,3,2,1,1,2.0,0.54,119.87,3127,0.0,2.0
3,2,76,3,1,5,14,29,2,4,4,2,1,1.0,0.39,120.26,7830,1.0,2.0
3,2,77,3,1,6,12,16,5,4,5,1,1,2.0,0.67,120.93,5511,0.0,2.0
3,2,78,3,2,1,10,30,3,5,5,2,1,2.0,0.63,121.56,1462,0.0,2.0
3,2,79,3,2,2,47,9,5,3,3,2,1,2.0,0.82,122.38,2517,0.0,1.0
3,2,80,3,1,1,10,17,5,3,3,2,1,1.0,0.55,122.93,1542,1.0,1.0
3,2,81,3,1,2,26,4,5,3,3,2,1,1.0,0.27,123.2,1014,1.0,1.0
3,2,82,3,1,3,48,53,4,5,5,2,1,1.0,0.35,123.55,902,1.0,1.0
3,2,83,3,1,4,35,37,5,3,3,2,1,1.0,0.24,123.79,2582,1.0,1.0
3,2,84,3,1,5,2,44,3,4,4,2,1,1.0,0.41,124.2,1559,1.0,1.0
4,1,1,1,2,1,42,24,4,5,4,1,1,2.0,0.62,0.62,1757,1.0,
4,1,2,1,1,1,35,10,5,2,2,2,1,2.0,0.47,1.09,3217,1.0,2.0
4,1,3,1,1,2,11,32,4,3,4,1,1,1.0,0.35,1.44,2818,0.0,2.0
4,1,4,1,1,3,2,46,5,4,4,2,1,2.0,0.7,2.14,5139,1.0,2.0
4,1,5,1,2,1,47,6,4,2,4,1,1,2.0,0.53,2.67,2018,1.0,2.0
4,1,6,1,2,2,21,39,5,2,2,2,1,1.0,0.47,3.14,2399,0.0,2.0
4,1,7,1,1,1,23,9,4,2,2,2,1,2.0,0.81,3.95,1063,1.0,1.0
4,1,8,1,1,2,47,8,4,5,5,2,1,2.0,0.66,4.61,3504,1.0,1.0
4,1,9,1,1,3,12,18,2,5,2,1,1,1.0,0.37,4.98,3726,0.0,2.0
4,1,10,1,1,4,5,31,4,2,4,1,1,1.0,0.35,5.33,1521,0.0,1.0
4,1,11,1,2,1,26,47,3,4,3,1,1,2.0,0.65,5.98,3537,1.0,1.0
4,1,12,1,2,2,39,37,4,3,3,2,1,1.0,0.42,6.4,3136,0.0,2.0
4,1,13,1,2,3,36,25,2,4,2,1,1,2.0,0.6,7.0,1996,1.0,2.0
4,1,14,1,2,4,5,3,2,5,2,1,1,2.0,0.92,7.92,1214,1.0,1.0
4,1,15,1,2,5,52,25,3,5,3,1,1,2.0,0.65,8.57,5633,1.0,1.0
4,1,16,1,1,1,44,38,5,3,3,2,1,2.0,0.68,9.25,1922,1.0,2.0
4,1,17,1,1,2,37,28,3,5,3,1,1,1.0,0.46,9.71,2285,0.0,2.0
4,1,18,1,1,3,43,12,4,5,4,1,1,1.0,0.34,10.05,5300,0.0,1.0
4,1,19,1,1,4,25,38,5,4,4,2,1,2.0,0.66,10.71,3298,1.0,2.0
4,1,20,1,1,5,40,39,5,4,5,1,1,1.0,0.23,10.94,2084,0.0,2.0
4,1,21,1,2,1,48,5,5,2,2,2,1,1.0,0.37,11.31,1549,0.0,2.0
4,1,22,1,2,2,26,3,2,3,2,1,1,2.0,0.51,11.82,2728,1.0,2.0
4,1,23,1,2,3,28,1,3,4,4,2,1,1.0,0.42,12.24,2240,0.0,2.0
4,1,24,1,2,4,45,54,2,5,5,2,1,1.0,0.52,12.76,4483,0.0,1.0
4,1,25,1,2,5,39,49,4,2,4,1,1,2.0,0.59,13.35,5290,1.0,2.0
4,1,26,1,2,6,6,11,5,3,5,1,1,2.0,0.77,14.12,2531,1.0,1.0
4,1,27,1,1,1,45,17,4,3,3,2,1,2.0,0.81,14.93,1955,1.0,2.0
4,1,28,1,1,2,47,18,4,2,2,2,1,2.0,0.48,15.41,1707,1.0,1.0
4,1,29,1,2,1,33,4,4,5,4,1,1,2.0,0.5,15.91,12442,1.0,2.0
4,1,30,1,2,2,32,4,3,4,4,2,1,1.0,0.4,16.31,1923,0.0,2.0
4,1,31,1,2,3,22,46,2,4,4,2,1,1.0,0.29,16.6,1439,0.0,1.0
4,1,32,1,2,4,5,19,2,3,2,1,1,2.0,0.75,17.35,4033,1.0,2.0
4,1,33,1,1,1,2,50,5,4,4,2,1,2.0,0.76,18.11,1701,1.0,2.0
4,1,34,1,1,2,18,47,5,4,4,2,1,2.0,0.75,18.86,1492,1.0,1.0
4,1,35,1,1,3,12,51,2,4,2,1,1,1.0,0.49,19.35,3311,0.0,2.0
4,1,36,1,1,4,3,41,3,2,2,2,1,2.0,0.75,20.1,4578,1.0,2.0
4,1,37,1,1,5,20,27,5,3,5,1,1,1.0,0.47,20.57,4946,0.0,2.0
4,1,38,1,1,6,3,43,4,2,2,2,1,2.0,0.53,21.1,4363,1.0,2.0
4,1,39,1,2,1,49,23,4,2,4,1,1,2.0,0.66,21.76,3716,1.0,2.0
4,1,40,1,2,2,46,20,5,2,2,2,1,1.0,0.31,22.07,1699,0.0,2.0
4,1,41,1,2,3,34,50,2,3,2,1,1,2.0,0.48,22.55,2224,1.0,2.0
4,1,42,1,1,1,41,46,3,5,5,2,1,2.0,0.7,23.25,4803,1.0,2.0
4,1,43,1,2,1,42,48,2,4,4,2,1,1.0,0.21,23.46,2771,0.0,1.0
4,1,44,1,1,1,17,8,3,2,2,2,1,2.0,0.83,24.29,1505,1.0,1.0
4,1,45,1,1,2,5,4,5,2,2,2,1,2.0,0.57,24.86,3233,1.0,1.0
4,1,46,1,1,3,9,43,2,5,5,2,1,2.0,0.73,25.59,4930,1.0,1.0
4,1,47,1,1,4,37,16,2,5,2,1,1,1.0,0.36,25.95,3754,0.0,2.0
4,1,48,1,1,5,39,46,5,3,3,2,1,2.0,0.56,26.51,3332,1.0,2.0
4,1,49,1,1,6,45,48,3,5,5,2,1,2.0,0.41,26.92,4164,1.0,1.0
4,1,50,1,2,1,42,26,5,3,3,2,1,1.0,0.33,27.25,5074,0.0,1.0
4,1,51,1,2,2,34,7,5,3,3,2,1,1.0,0.21,27.46,1648,0.0,1.0
4,1,52,1,2,3,37,3,3,4,4,2,1,1.0,0.41,27.87,2434,0.0,1.0
4,1,53,1,1,1,25,24,3,2,3,1,1,1.0,0.39,28.26,4879,0.0,2.0
4,1,54,1,1,2,1,48,2,3,3,2,1,2.0,0.87,29.13,1394,1.0,2.0
4,1,55,1,1,3,8,2,2,3,3,2,1,2.0,0.74,29.87,1713,1.0,1.0
4,1,56,1,1,4,41,28,4,3,4,1,1,1.0,0.26,30.13,4357,0.0,2.0
4,1,57,1,2,1,20,8,3,4,4,2,1,1.0,0.38,30.51,1266,0.0,2.0
4,1,58,1,2,2,45,20,5,4,4,2,1,1.0,0.21,30.72,7237,0.0,1.0
4,1,59,1,2,3,27,36,4,5,5,2,1,1.0,0.33,31.05,3072,0.0,1.0
4,1,60,1,2,4,10,38,4,3,4,1,1,2.0,0.66,31.71,2148,1.0,2.0
4,1,61,1,1,1,15,49,5,3,5,1,1,1.0,0.33,32.04,4082,0.0,1.0
4,1,62,1,1,2,4,42,4,3,3,2,1,2.0,0.63,32.67,6405,1.0,2.0
4,1,63,1,2,1,48,2,2,4,4,2,1,1.0,0.46,33.13,3316,0.0,1.0
4,1,64,1,2,2,36,1,2,5,2,1,1,2.0,0.45,33.58,2803,1.0,2.0
4,1,65,1,2,3,22,30,2,4,4,2,1,1.0,0.38,33.96,4195,0.0,2.0
4,1,66,1,2,4,22,5,4,3,3,2,1,1.0,0.44,34.4,2199,0.0,1.0
4,1,67,1,2,5,45,25,4,5,4,1,1,2.0,0.75,35.15,2866,1.0,2.0
4,1,68,1,1,1,19,33,3,4,4,2,1,2.0,0.74,35.89,2577,1.0,2.0
4,1,69,1,1,2,9,21,3,5,5,2,1,2.0,0.67,36.56,1891,1.0,1.0
4,1,70,1,1,3,10,6,3,4,4,2,1,2.0,0.75,37.31,1156,1.0,1.0
4,1,71,1,1,4,15,23,5,4,5,1,1,1.0,0.4,37.71,2035,0.0,2.0
4,1,72,1,1,5,39,5,3,5,5,2,1,2.0,0.64,38.35,6419,1.0,2.0
4,1,73,1,2,1,7,3,3,5,5,2,1,1.0,0.29,38.64,1264,0.0,1.0
4,1,74,1,2,2,49,14,3,2,2,2,1,1.0,0.3,38.94,5812,0.0,1.0
4,1,75,1,1,1,21,10,2,3,3,2,1,2.0,0.49,39.43,2371,1.0,1.0
4,1,76,1,1,2,54,50,2,5,5,2,1,2.0,0.64,40.07,2417,1.0,1.0
4,1,77,1,1,3,30,46,3,2,2,2,1,2.0,0.68,40.75,1234,1.0,1.0
4,1,78,1,2,1,27,51,3,2,2,2,1,1.0,0.37,41.12,2020,0.0,1.0
4,1,79,1,2,2,43,42,5,2,5,1,1,2.0,0.84,41.96,3554,1.0,2.0
4,1,80,1,2,3,14,2,5,2,2,2,1,1.0,0.29,42.25,2705,0.0,2.0
4,1,81,1,2,4,25,36,2,4,2,1,1,2.0,0.74,42.99,1411,1.0,2.0
4,1,82,1,2,5,33,13,2,3,3,2,1,1.0,0.43,43.42,2599,0.0,2.0
4,1,83,1,2,6,37,21,4,5,4,1,1,2.0,0.78,44.2,3504,1.0,2.0
4,1,84,1,1,1,14,53,3,2,2,2,1,2.0,0.55,44.75,2754,1.0,2.0
4,1,1,2,1,1,8,40,2,3,2,1,1,1.0,0.36,45.11,1425,0.0,
4,1,2,2,1,2,52,10,4,5,5,2,1,2.0,0.7,45.81,1817,1.0,2.0
4,1,3,2,2,1,15,36,3,2,3,1,1,2.0,0.55,46.36,5890,1.0,2.0
4,1,4,2,2,2,51,12,2,4,4,2,1,1.0,0.25,46.61,1569,0.0,2.0
4,1,5,2,2,3,20,7,5,4,4,2,1,1.0,0.46,47.07,3520,0.0,1.0
4,1,6,2,2,4,1,54,5,3,5,1,1,2.0,0.65,47.72,3712,1.0,2.0
4,1,7,2,2,5,53,13,2,3,2,1,1,2.0,0.71,48.43,3072,1.0,1.0
4,1,8,2,1,1,5,13,4,2,2,2,1,2.0,0.68,49.11,1922,1.0,2.0
4,1,9,2,1,2,20,11,3,5,5,2,1,2.0,0.59,49.7,1908,1.0,1.0
4,1,10,2,1,3,5,28,5,2,5,1,1,1.0,0.27,49.97,5028,0.0,2.0
4,1,11,2,2,1,38,29,3,2,2,2,1,1.0,0.39,50.36,8099,0.0,2.0
4,1,12,2,2,2,18,22,5,3,5,1,1,2.0,0.56,50.92,3604,1.0,2.0
4,1,13,2,2,3,8,44,3,2,3,1,1,2.0,0.76,51.68,5254,1.0,1.0
4,1,14,2,2,4,50,29,3,5,5,2,1,1.0,0.4,52.08,3252,0.0,2.0
4,1,15,2,2,5,27,54,4,3,3,2,1,1.0,0.24,52.32,3475,0.0,1.0
4,1,16,2,2,6,39,12,3,4,4,2,1,1.0,0.3,52.62,1107,0.0,1.0
4,1,17,2,1,1,46,41,5,4,4,2,1,2.0,0.53,53.15,2576,1.0,1.0
4,1,18,2,2,1,23,4,2,3,2,1,1,2.0,0.41,53.56,4690,1.0,2.0
4,1,19,2,2,2,2,25,5,3,3,2,1,1.0,0.45,54.01,2418,0.0,2.0
4,1,20,2,2,3,46,35,2,4,4,2,1,1.0,0.27,54.28,5026,0.0,1.0
4,1,21,2,1,1,8,30,5,4,4,2,1,2.0,0.71,54.99,4258,1.0,1.0
4,1,22,2,1,2,46,21,3,2,3,1,1,1.0,0.36,55.35,1762,0.0,2.0
4,1,23,2,1,3,31,43,3,2,2,2,1,2.0,0.67,56.02,4210,1.0,2.0
4,1,24,2,1,4,4,7,5,4,5,1,1,1.0,0.21,56.23,6881,0.0,2.0
4,1,25,2,2,1,35,31,5,2,5,1,1,2.0,0.56,56.79,4416,1.0,1.0
4,1,26,2,2,2,13,43,4,2,4,1,1,2.0,0.62,57.41,6740,1.0,1.0
4,1,27,2,1,1,29,14,5,4,4,2,1,2.0,0.53,57.94,3715,1.0,2.0
4,1,28,2,1,2,30,42,4,3,4,1,1,1.0,0.21,58.15,4019,0.0,2.0
4,1,29,2,1,3,43,31,2,5,5,2,1,2.0,0.84,58.99,5558,1.0,2.0
4,1,30,2,1,4,51,38,4,5,5,2,1,2.0,0.67,59.66,3460,1.0,1.0
4,1,31,2,1,5,21,10,3,5,5,2,1,2.0,0.52,60.18,1585,1.0,1.0
4,1,32,2,1,6,32,24,2,3,3,2,1,2.0,0.66,60.84,2484,1.0,1.0
4,1,33,2,2,1,34,53,4,3,4,1,1,2.0,0.53,61.37,6900,1.0,2.0
4,1,34,2,1,1,16,33,3,5,5,2,1,2.0,0.51,61.88,2513,1.0,2.0
4,1,35,2,1,2,38,19,2,4,4,2,1,2.0,0.64,62.52,4594,1.0,1.0
4,1,36,2,1,3,45,11,5,3,3,2,1,2.0,0.78,63.3,3187,1.0,1.0
4,1,37,2,1,4,15,32,4,5,5,2,1,2.0,0.68,63.98,2376,1.0,1.0
4,1,38,2,1,5,24,5,4,3,3,2,1,2.0,0.74,64.72,2097,1.0,1.0
4,1,39,2,2,1,22,9,4,3,3,2,1,1.0,0.2,64.92,1394,0.0,1.0
4,1,40,2,2,2,38,28,2,5,2,1,1,2.0,0.61,65.53,6736,1.0,2.0
4,1,41,2,2,3,13,1,5,4,4,2,1,1.0,0.3,65.83,4112,0.0,2.0
4,1,42,2,2,4,50,35,4,5,5,2,1,1.0,0.19,66.02,4097,0.0,1.0
4,1,43,2,1,1,21,51,3,2,2,2,1,2.0,0.51,66.53,2131,1.0,1.0
4,1,44,2,1,2,40,28,3,4,4,2,1,2.0,0.78,67.31,2020,1.0,1.0
4,1,45,2,2,1,28,40,2,3,2,1,1,2.0,0.67,67.98,1586,1.0,2.0
4,1,46,2,2,2,15,44,3,4,3,1,1,2.0,0.59,68.57,5617,1.0,1.0
4,1,47,2,2,3,30,6,2,4,4,2,1,1.0,0.43,69.0,5297,0.0,2.0
4,1,48,2,2,4,10,25,3,4,4,2,1,1.0,0.36,69.36,6419,0.0,1.0
4,1,49,2,1,1,38,12,5,4,4,2,1,2.0,0.55,69.91,2243,1.0,1.0
4,1,50,2,2,1,17,23,2,4,4,2,1,1.0,0.49,70.4,9025,0.0,1.0
4,1,51,2,2,2,22,44,3,4,3,1,1,2.0,0.7,71.1,13250,1.0,2.0
4,1,52,2,1,1,25,18,4,2,2,2,1,2.0,0.84,71.94,2114,1.0,2.0
4,1,53,2,1,2,3,9,2,5,5,2,1,2.0,0.8,72.74,2450,1.0,1.0
4,1,54,2,1,3,2,45,2,3,2,1,1,1.0,0.25,72.99,3059,0.0,2.0
4,1,55,2,1,4,50,24,2,3,2,1,1,1.0,0.18,73.17,5969,0.0,1.0
4,1,56,2,2,1,10,51,4,5,4,1,1,2.0,0.66,73.83,1833,1.0,1.0
4,1,57,2,1,1,52,10,5,2,2,2,1,2.0,0.63,74.46,2067,1.0,2.0
4,1,58,2,1,2,51,22,2,5,5,2,1,2.0,0.57,75.03,6214,1.0,1.0
4,1,59,2,1,3,20,24,2,4,4,2,1,2.0,0.73,75.76,2789,1.0,1.0
4,1,60,2,1,4,18,28,3,5,5,2,1,2.0,0.84,76.6,12449,1.0,1.0
4,1,61,2,1,5,7,8,3,5,5,2,1,2.0,0.6,77.2,4093,1.0,1.0
4,1,62,2,1,6,30,31,4,2,4,1,1,1.0,0.23,77.43,2102,0.0,2.0
4,1,63,2,2,1,6,29,3,5,5,2,1,1.0,0.3,77.73,2114,0.0,2.0
4,1,64,2,2,2,3,54,2,5,5,2,1,1.0,0.41,78.14,4048,0.0,1.0
4,1,65,2,2,3,39,49,5,2,2,2,1,1.0,0.23,78.37,2784,0.0,1.0
4,1,66,2,1,1,47,45,5,3,3,2,1,2.0,0.53,78.9,1586,1.0,1.0
4,1,67,2,1,2,53,41,4,5,5,2,1,2.0,0.65,79.55,3777,1.0,1.0
4,1,68,2,1,3,30,53,5,2,2,2,1,2.0,0.66,80.21,2817,1.0,1.0
4,1,69,2,1,4,37,13,4,3,3,2,1,2.0,0.72,80.93,3300,1.0,1.0
4,1,70,2,1,5,20,48,5,3,3,2,1,2.0,0.6,81.53,1793,1.0,1.0
4,1,71,2,2,1,54,23,2,5,2,1,1,2.0,0.65,82.18,2693,1.0,2.0
4,1,72,2,2,2,5,47,4,2,2,2,1,1.0,0.28,82.46,1602,0.0,2.0
4,1,73,2,2,3,46,27,4,5,5,2,1,1.0,0.32,82.78,1553,0.0,1.0
4,1,74,2,2,4,15,26,2,4,4,2,1,1.0,0.51,83.29,2145,0.0,1.0
4,1,75,2,2,5,2,19,2,5,2,1,1,2.0,0.6,83.89,4766,1.0,2.0
4,1,76,2,2,6,20,28,4,3,3,2,1,1.0,0.17,84.06,2116,0.0,2.0
4,1,77,2,1,1,51,35,3,4,4,2,1,2.0,0.72,84.78,2881,1.0,1.0
4,1,78,2,1,2,39,43,5,2,5,1,1,1.0,0.23,85.01,7634,0.0,2.0
4,1,79,2,1,3,44,2,5,3,5,1,1,1.0,0.34,85.35,4499,0.0,1.0
4,1,80,2,2,1,21,42,4,2,2,2,1,1.0,0.26,85.61,5282,0.0,2.0
4,1,81,2,2,2,37,40,3,2,3,1,1,2.0,0.73,86.34,3812,1.0,2.0
4,1,82,2,2,3,50,29,3,4,4,2,1,1.0,0.4,86.74,1730,0.0,2.0
4,1,83,2,2,4,32,10,4,2,2,2,1,1.0,0.31,87.05,1603,0.0,1.0
4,1,84,2,2,5,17,27,5,2,2,2,1,1.0,0.09,87.14,1763,0.0,1.0
4,1,1,3,2,1,23,40,2,3,3,2,1,1.0,0.35,87.49,5030,0.0,
4,1,2,3,2,2,38,28,2,3,2,1,1,2.0,0.85,88.34,2455,1.0,2.0
4,1,3,3,2,3,48,29,2,3,3,2,1,1.0,0.45,88.79,3682,0.0,2.0
4,1,4,3,2,4,33,50,4,3,4,1,1,2.0,0.48,89.27,4610,1.0,2.0
4,1,5,3,2,5,6,45,2,5,2,1,1,2.0,0.66,89.93,4966,1.0,1.0
4,1,6,3,2,6,19,10,3,2,3,1,1,2.0,0.59,90.52,1795,1.0,1.0
4,1,7,3,1,1,49,3,4,5,5,2,1,2.0,0.55,91.07,2001,1.0,2.0
4,1,8,3,1,2,43,29,4,2,2,2,1,2.0,0.52,91.59,4707,1.0,1.0
4,1,9,3,1,3,23,51,4,3,3,2,1,2.0,0.7,92.29,4706,1.0,1.0
4,1,10,3,1,4,13,32,2,3,2,1,1,1.0,0.28,92.57,4131,0.0,2.0
4,1,11,3,2,1,49,50,5,2,2,2,1,1.0,0.34,92.91,2690,0.0,2.0
4,1,12,3,2,2,1,40,4,3,3,2,1,1.0,0.29,93.2,5202,0.0,1.0
4,1,13,3,2,3,18,17,2,5,5,2,1,1.0,0.28,93.48,3522,0.0,1.0
4,1,14,3,2,4,8,5,3,4,4,2,1,1.0,0.38,93.86,4499,0.0,1.0
4,1,15,3,2,5,5,28,4,3,3,2,1,1.0,0.42,94.28,3026,0.0,1.0
4,1,16,3,1,1,8,48,3,2,2,2,1,2.0,0.92,95.2,1249,1.0,1.0
4,1,17,3,2,1,2,45,5,2,2,2,1,1.0,0.17,95.37,1395,0.0,1.0
4,1,18,3,2,2,27,33,3,5,3,1,1,2.0,0.55,95.92,5359,1.0,2.0
4,1,19,3,2,3,17,51,2,4,2,1,1,2.0,0.79,96.71,2754,1.0,1.0
4,1,20,3,1,1,53,54,2,4,4,2,1,2.0,0.62,97.33,4146,1.0,2.0
4,1,21,3,1,2,12,19,2,5,2,1,1,1.0,0.17,97.5,2321,0.0,2.0
4,1,22,3,1,3,5,31,2,5,2,1,1,1.0,0.37,97.87,2627,0.0,1.0
4,1,23,3,1,4,21,15,4,5,4,1,1,1.0,0.52,98.39,4994,0.0,1.0
4,1,24,3,1,5,29,14,4,5,5,2,1,2.0,0.75,99.14,4402,1.0,2.0
4,1,25,3,2,1,42,39,2,4,4,2,1,1.0,0.56,99.7,2560,0.0,1.0
4,1,26,3,2,2,39,22,4,5,4,1,1,2.0,0.73,100.43,8451,1.0,2.0
4,1,27,3,1,1,16,31,3,2,3,1,1,1.0,0.55,100.98,2581,0.0,1.0
4,1,28,3,1,2,49,18,2,3,3,2,1,2.0,0.63,101.61,3600,1.0,2.0
4,1,29,3,1,3,47,44,4,2,2,2,1,2.0,0.53,102.14,2052,1.0,1.0
4,1,30,3,2,1,4,22,5,4,4,2,1,1.0,0.31,102.45,5105,0.0,1.0
4,1,31,3,2,2,2,25,5,3,3,2,1,1.0,0.47,102.92,3545,0.0,1.0
4,1,32,3,2,3,48,31,5,4,4,2,1,1.0,0.2,103.12,4868,0.0,1.0
4,1,33,3,2,4,44,39,2,3,3,2,1,1.0,0.41,103.53,1684,0.0,1.0
4,1,34,3,1,1,54,14,4,3,3,2,1,2.0,0.6,104.13,1682,1.0,1.0
4,1,35,3,1,2,2,34,5,4,4,2,1,2.0,0.73,104.86,3485,1.0,1.0
4,1,36,3,1,3,25,24,3,2,2,2,1,2.0,0.54,105.4,2930,1.0,1.0
4,1,37,3,1,4,12,51,5,3,3,2,1,2.0,0.68,106.08,1779,1.0,1.0
4,1,38,3,1,5,52,31,4,2,2,2,1,2.0,0.43,106.51,2240,1.0,1.0
4,1,39,3,1,6,16,23,4,5,5,2,1,2.0,0.61,107.12,3217,1.0,1.0
4,1,40,3,2,1,32,27,5,3,3,2,1,1.0,0.39,107.51,2261,0.0,1.0
4,1,41,3,1,1,2,32,4,2,2,2,1,2.0,0.63,108.14,2147,1.0,1.0
4,1,42,3,1,2,34,13,5,3,3,2,1,2.0,0.81,108.95,1554,1.0,1.0
4,1,43,3,2,1,3,53,3,5,5,2,1,1.0,0.26,109.21,4690,0.0,1.0
4,1,44,3,2,2,17,33,3,2,2,2,1,1.0,0.06,109.27,2083,0.0,1.0
4,1,45,3,2,3,42,20,4,5,5,2,1,1.0,0.19,109.46,4633,0.0,1.0
4,1,46,3,2,4,10,35,3,4,4,2,1,1.0,0.46,109.92,3520,0.0,1.0
4,1,47,3,1,1,20,27,2,4,4,2,1,2.0,0.65,110.57,2717,1.0,1.0
4,1,48,3,1,2,17,49,2,3,3,2,1,2.0,0.71,111.28,3539,1.0,1.0
4,1,49,3,1,3,15,8,3,4,4,2,1,2.0,0.78,112.06,4357,1.0,1.0
4,1,50,3,1,4,1,5,3,4,4,2,1,2.0,0.42,112.48,3421,1.0,1.0
4,1,51,3,1,5,38,25,5,3,3,2,1,2.0,0.59,113.07,1483,1.0,1.0
4,1,52,3,1,6,12,9,3,4,4,2,1,2.0,0.58,113.65,2771,1.0,1.0
4,1,53,3,2,1,45,23,4,2,2,2,1,1.0,0.21,113.86,1825,0.0,1.0
4,1,54,3,2,2,35,16,2,5,5,2,1,1.0,0.31,114.17,3190,0.0,1.0
4,1,55,3,2,3,6,49,5,2,2,2,1,1.0,0.51,114.68,5137,0.0,1.0
4,1,56,3,1,1,7,22,2,5,5,2,1,2.0,0.66,115.34,2306,1.0,1.0
4,1,57,3,1,2,42,1,5,4,4,2,1,2.0,0.81,116.15,1460,1.0,1.0
4,1,58,3,1,3,12,22,4,2,2,2,1,2.0,0.58,116.73,2323,1.0,1.0
4,1,59,3,2,1,20,11,4,2,2,2,1,1.0,0.33,117.06,3458,0.0,1.0
4,1,60,3,1,1,6,26,5,2,2,2,1,2.0,0.57,117.63,1028,1.0,1.0
4,1,61,3,1,2,43,31,3,5,5,2,1,2.0,0.74,118.37,2594,1.0,1.0
4,1,62,3,1,3,2,28,5,3,3,2,1,2.0,0.64,119.01,2140,1.0,1.0
4,1,63,3,1,4,17,35,3,4,4,2,1,2.0,0.72,119.73,2850,1.0,1.0
4,1,64,3,2,1,51,17,3,2,2,2,1,1.0,0.41,120.14,3502,0.0,1.0
4,1,65,3,2,2,50,35,4,3,3,2,1,1.0,0.32,120.46,3858,0.0,1.0
4,1,66,3,1,1,12,17,3,4,4,2,1,2.0,0.77,121.23,1634,1.0,1.0
4,1,67,3,1,2,49,5,5,4,4,2,1,2.0,0.94,122.17,2866,1.0,1.0
4,1,68,3,1,3,13,43,4,3,3,2,1,2.0,0.73,122.9,1401,1.0,1.0
4,1,69,3,1,4,43,53,3,5,5,2,1,2.0,0.67,123.57,2818,1.0,1.0
4,1,70,3,1,5,33,20,5,4,4,2,1,2.0,0.77,124.34,1394,1.0,1.0
4,1,71,3,2,1,25,17,2,4,4,2,1,1.0,0.34,124.68,1345,0.0,1.0
4,1,72,3,2,2,24,9,3,5,5,2,1,1.0,0.2,124.88,3074,0.0,1.0
4,1,73,3,2,3,11,37,5,2,2,2,1,1.0,0.39,125.27,1988,0.0,1.0
4,1,74,3,2,4,40,52,3,5,5,2,1,1.0,0.33,125.6,3456,0.0,1.0
4,1,75,3,2,5,30,47,2,4,2,1,1,2.0,0.63,126.23,2130,1.0,2.0
4,1,76,3,1,1,22,52,2,5,2,1,1,1.0,0.48,126.71,2990,0.0,1.0
4,1,77,3,2,1,3,46,3,2,2,2,1,1.0,0.55,127.26,1953,0.0,2.0
4,1,78,3,2,2,47,54,4,5,4,1,1,2.0,0.61,127.87,1777,1.0,2.0
4,1,79,3,2,3,41,29,5,2,2,2,1,1.0,0.35,128.22,4185,0.0,2.0
4,1,80,3,2,4,39,30,5,2,5,1,1,2.0,0.57,128.79,3747,1.0,2.0
4,1,81,3,2,5,38,51,5,3,3,2,1,1.0,0.41,129.2,4835,0.0,2.0
4,1,82,3,2,6,3,35,2,4,2,1,1,2.0,0.39,129.59,3634,1.0,2.0
4,1,83,3,1,1,32,28,3,5,5,2,1,2.0,0.78,130.37,2976,1.0,2.0
4,1,84,3,1,2,28,43,5,4,4,2,1,2.0,0.69,131.06,4482,1.0,1.0
4,1,1,4,2,1,52,36,5,3,3,2,1,1.0,0.36,131.42,5202,0.0,
4,1,2,4,1,1,20,49,2,4,4,2,1,2.0,0.81,132.23,3568,1.0,1.0
4,1,3,4,1,2,51,5,3,2,2,2,1,2.0,0.63,132.86,2658,1.0,1.0
4,1,4,4,1,3,8,11,3,5,3,1,1,1.0,0.32,133.18,2354,0.0,2.0
4,1,5,4,2,1,17,23,3,5,5,2,1,1.0,0.18,133.36,2641,0.0,2.0
4,1,6,4,2,2,18,50,2,3,2,1,1,2.0,0.47,133.83,2257,1.0,2.0
4,1,7,4,1,1,51,19,4,3,4,1,1,1.0,0.25,134.08,2544,0.0,1.0
4,1,8,4,1,2,1,22,5,2,2,2,1,2.0,0.7,134.78,1683,1.0,2.0
4,1,9,4,1,3,21,28,3,4,3,1,1,1.0,0.27,135.05,1873,0.0,2.0
4,1,10,4,1,4,30,49,4,3,3,2,1,2.0,0.51,135.56,3938,1.0,2.0
4,1,11,4,2,1,22,6,3,5,5,2,1,1.0,0.46,136.02,1812,0.0,1.0
4,1,12,4,2,2,33,36,5,2,5,1,1,2.0,0.58,136.6,3552,1.0,2.0
4,1,13,4,2,3,21,37,2,4,4,2,1,1.0,0.33,136.93,4800,0.0,2.0
4,1,14,4,2,4,25,31,5,2,2,2,1,1.0,0.33,137.26,2864,0.0,1.0
4,1,15,4,2,5,44,45,4,5,5,2,1,1.0,0.3,137.56,4866,0.0,1.0
4,1,16,4,1,1,53,16,2,3,3,2,1,2.0,0.71,138.27,3409,1.0,1.0
4,1,17,4,1,2,13,33,5,3,3,2,1,2.0,0.64,138.91,3156,1.0,1.0
4,1,18,4,1,3,22,46,3,2,2,2,1,2.0,0.47,139.38,2418,1.0,1.0
4,1,19,4,1,4,19,52,4,2,2,2,1,2.0,0.55,139.93,2400,1.0,1.0
4,1,20,4,1,5,35,3,3,4,4,2,1,2.0,0.7,140.63,3502,1.0,1.0
4,1,21,4,2,1,39,1,4,2,2,2,1,1.0,0.18,140.81,3713,0.0,1.0
4,1,22,4,2,2,19,28,2,5,5,2,1,1.0,0.29,141.1,3333,0.0,1.0
4,1,23,4,2,3,24,18,5,4,4,2,1,1.0,0.22,141.32,2499,0.0,1.0
4,1,24,4,2,4,34,8,5,4,4,2,1,1.0,0.19,141.51,1267,0.0,1.0
4,1,25,4,2,5,4,26,5,2,2,2,1,1.0,0.21,141.72,1952,0.0,1.0
4,1,26,4,2,6,18,32,5,4,4,2,1,1.0,0.29,142.01,3090,0.0,1.0
4,1,27,4,1,1,53,49,4,5,5,2,1,2.0,0.69,142.7,2337,1.0,1.0
4,1,28,4,1,2,10,31,5,2,2,2,1,2.0,0.65,143.35,1694,1.0,1.0
4,1,29,4,2,1,40,1,4,2,2,2,1,1.0,0.46,143.81,1552,0.0,1.0
4,1,30,4,2,2,5,39,4,3,3,2,1,1.0,0.3,144.11,4833,0.0,1.0
4,1,31,4,2,3,41,4,3,2,2,2,1,1.0,0.15,144.26,1122,0.0,1.0
4,1,32,4,2,4,39,24,3,4,4,2,1,1.0,0.33,144.59,2673,0.0,1.0
4,1,33,4,1,1,50,9,3,5,5,2,1,2.0,0.68,145.27,1474,1.0,1.0
4,1,34,4,1,2,22,6,3,2,2,2,1,2.0,0.7,145.97,1379,1.0,1.0
4,1,35,4,1,3,24,42,2,5,5,2,1,2.0,0.73,146.7,4930,1.0,1.0
4,1,36,4,1,4,7,20,4,5,5,2,1,2.0,0.82,147.52,1456,1.0,1.0
4,1,37,4,1,5,9,2,3,4,4,2,1,2.0,0.6,148.12,2582,1.0,1.0
4,1,38,4,1,6,3,14,3,2,2,2,1,2.0,0.7,148.82,2402,1.0,1.0
4,1,39,4,2,1,25,42,3,2,2,2,1,1.0,0.33,149.15,1855,0.0,1.0
4,1,40,4,2,2,38,9,2,3,3,2,1,1.0,0.26,149.41,2033,0.0,1.0
4,1,41,4,2,3,38,12,4,3,4,1,1,2.0,0.92,150.33,15634,1.0,2.0
4,1,42,4,1,1,47,53,2,5,5,2,1,2.0,0.64,150.97,3825,1.0,2.0
4,1,43,4,2,1,4,23,5,3,3,2,1,1.0,0.17,151.14,2066,0.0,1.0
4,1,44,4,1,1,34,15,3,2,2,2,1,2.0,0.88,152.02,2681,1.0,1.0
4,1,45,4,1,2,39,44,4,2,2,2,1,2.0,0.71,152.73,1343,1.0,1.0
4,1,46,4,1,3,54,28,4,3,3,2,1,2.0,0.54,153.27,2578,1.0,1.0
4,1,47,4,1,4,14,23,5,4,4,2,1,2.0,0.74,154.01,3438,1.0,1.0
4,1,48,4,1,5,42,38,3,5,5,2,1,2.0,0.82,154.83,3481,1.0,1.0
4,1,49,4,1,6,36,26,5,2,2,2,1,2.0,0.56,155.39,1593,1.0,1.0
4,1,50,4,2,1,26,2,2,3,3,2,1,1.0,0.35,155.74,4594,0.0,1.0
4,1,51,4,2,2,36,19,2,5,2,1,1,2.0,0.65,156.39,1906,1.0,2.0
4,1,52,4,2,3,19,46,4,3,3,2,1,1.0,0.2,156.59,322,0.0,2.0
4,1,53,4,1,1,23,40,5,3,3,2,1,2.0,0.81,157.4,6226,1.0,1.0
4,1,54,4,1,2,26,34,5,2,2,2,1,2.0,0.67,158.07,2816,1.0,1.0
4,1,55,4,1,3,23,38,5,3,3,2,1,2.0,0.73,158.8,1951,1.0,1.0
4,1,56,4,1,4,47,33,2,4,4,2,1,2.0,0.58,159.38,3424,1.0,1.0
4,1,57,4,2,1,5,48,4,2,2,2,1,1.0,0.26,159.64,4512,0.0,1.0
4,1,58,4,2,2,24,25,2,4,2,1,1,2.0,0.7,160.34,1647,1.0,2.0
4,1,59,4,2,3,38,33,2,3,3,2,1,1.0,0.35,160.69,5025,0.0,2.0
4,1,60,4,2,4,32,45,4,5,5,2,1,1.0,0.55,161.24,6241,0.0,1.0
4,1,61,4,1,1,7,9,2,5,5,2,1,2.0,0.63,161.87,1442,1.0,1.0
4,1,62,4,1,2,54,19,2,5,5,2,1,2.0,0.93,162.8,2129,1.0,1.0
4,1,63,4,2,1,22,32,2,4,2,1,1,2.0,0.84,163.64,1327,1.0,2.0
4,1,64,4,2,2,30,25,2,4,4,2,1,1.0,0.1,163.74,4722,0.0,2.0
4,1,65,4,2,3,40,26,4,3,3,2,1,1.0,0.13,163.87,4070,0.0,1.0
4,1,66,4,2,4,6,24,3,4,4,2,1,1.0,0.27,164.14,2195,0.0,1.0
4,1,67,4,2,5,28,31,2,3,3,2,1,1.0,0.31,164.45,3535,0.0,1.0
4,1,68,4,1,1,23,28,4,5,5,2,1,2.0,0.67,165.12,4174,1.0,1.0
4,1,69,4,1,2,9,34,5,3,3,2,1,2.0,0.77,165.89,2785,1.0,1.0
4,1,70,4,1,3,45,25,3,4,4,2,1,2.0,0.58,166.47,4113,1.0,1.0
4,1,71,4,1,4,17,51,5,4,4,2,1,2.0,0.58,167.05,2082,1.0,1.0
4,1,72,4,1,5,6,44,5,4,4,2,1,2.0,0.64,167.69,3218,1.0,1.0
4,1,73,4,2,1,39,29,4,5,5,2,1,1.0,0.33,168.02,3040,0.0,1.0
4,1,74,4,2,2,17,46,4,5,5,2,1,1.0,0.37,168.39,1973,0.0,1.0
4,1,75,4,1,1,3,35,2,3,3,2,1,2.0,0.79,169.18,2669,1.0,1.0
4,1,76,4,1,2,51,39,3,5,5,2,1,2.0,0.74,169.92,3025,1.0,1.0
4,1,77,4,1,3,27,38,5,4,4,2,1,2.0,0.46,170.38,1683,1.0,1.0
4,1,78,4,2,1,34,48,4,2,2,2,1,1.0,0.42,170.8,1458,0.0,1.0
4,1,79,4,2,2,11,5,3,4,4,2,1,1.0,0.43,171.23,4099,0.0,1.0
4,1,80,4,2,3,28,29,4,2,2,2,1,1.0,0.41,171.64,4657,0.0,1.0
4,1,81,4,2,4,22,16,5,3,3,2,1,1.0,0.49,172.13,2593,0.0,1.0
4,1,82,4,2,5,17,20,2,4,4,2,1,1.0,0.37,172.5,2037,0.0,1.0
4,1,83,4,2,6,53,7,2,5,5,2,1,1.0,0.25,172.75,4656,0.0,1.0
4,1,84,4,1,1,28,49,3,5,5,2,1,2.0,0.65,173.4,4006,1.0,1.0
5,2,1,1,1,1,32,42,4,2,2,2,1,1.0,0.28,0.28,3493,1.0,
5,2,2,1,2,1,49,33,3,5,3,1,1,1.0,0.14,0.42,4235,1.0,2.0
5,2,3,1,2,2,52,29,5,3,3,2,1,2.0,0.68,1.1,4224,0.0,2.0
5,2,4,1,2,3,8,54,4,3,3,2,1,2.0,0.7,1.8,1644,0.0,1.0
5,2,5,1,2,4,18,30,5,2,2,2,1,2.0,0.53,2.33,1176,0.0,1.0
5,2,6,1,1,1,7,24,5,3,5,1,1,2.0,0.81,3.14,2874,0.0,2.0
5,2,7,1,1,2,33,31,2,4,2,1,1,2.0,0.81,3.95,5313,0.0,1.0
5,2,8,1,1,3,43,6,5,3,5,1,1,2.0,0.66,4.61,3724,0.0,1.0
5,2,9,1,1,4,12,37,4,3,3,2,1,1.0,0.37,4.98,7502,1.0,2.0
5,2,10,1,1,5,11,54,5,4,5,1,1,2.0,0.69,5.67,1041,0.0,2.0
5,2,11,1,2,1,31,22,3,2,2,2,1,2.0,0.65,6.32,2404,0.0,2.0
5,2,12,1,2,2,32,45,5,4,5,1,1,1.0,0.42,6.74,6579,1.0,2.0
5,2,13,1,2,3,51,43,3,4,4,2,1,2.0,0.6,7.34,3000,0.0,2.0
5,2,14,1,2,4,45,28,4,5,4,1,1,1.0,0.59,7.93,4515,1.0,2.0
5,2,15,1,2,5,2,44,3,4,4,2,1,2.0,0.65,8.58,3519,0.0,2.0
5,2,16,1,1,1,35,38,2,4,4,2,1,1.0,0.35,8.93,3444,1.0,1.0
5,2,17,1,1,2,18,50,4,2,4,1,1,2.0,0.79,9.72,4931,0.0,2.0
5,2,18,1,2,1,7,32,2,5,5,2,1,2.0,0.67,10.39,2673,0.0,2.0
5,2,19,1,2,2,11,51,5,3,5,1,1,1.0,0.32,10.71,2642,1.0,2.0
5,2,20,1,2,3,46,40,5,3,3,2,1,2.0,0.57,11.28,5924,0.0,2.0
5,2,21,1,1,1,19,3,2,4,2,1,1,2.0,0.7,11.98,3201,0.0,2.0
5,2,22,1,1,2,13,33,5,2,5,1,1,2.0,0.51,12.49,1255,0.0,1.0
5,2,23,1,1,3,38,36,4,3,4,1,1,2.0,0.75,13.24,3186,0.0,1.0
5,2,24,1,1,4,17,18,4,5,4,1,1,2.0,0.86,14.1,4145,0.0,1.0
5,2,25,1,2,1,31,23,5,2,2,2,1,2.0,0.59,14.69,4484,0.0,2.0
5,2,26,1,2,2,31,29,4,2,2,2,1,2.0,0.77,15.46,2033,0.0,1.0
5,2,27,1,1,1,25,49,3,2,3,1,1,2.0,0.81,16.27,5157,0.0,2.0
5,2,28,1,1,2,11,19,3,4,4,2,1,1.0,0.15,16.42,3827,1.0,2.0
5,2,29,1,1,3,5,41,4,2,3,0,0,0.0,0.0,16.42,4404,,
5,2,30,1,2,1,22,3,3,2,3,1,1,1.0,0.16,16.58,6500,1.0,
5,2,31,1,1,1,52,54,2,3,2,1,1,2.0,0.73,17.31,3122,0.0,1.0
5,2,32,1,1,2,5,15,4,2,2,2,1,1.0,0.29,17.6,6323,1.0,2.0
5,2,33,1,1,3,48,52,5,2,2,2,1,1.0,0.41,18.01,8771,1.0,1.0
5,2,34,1,1,4,7,31,5,2,2,2,1,1.0,0.43,18.44,2200,1.0,1.0
5,2,35,1,1,5,37,5,2,4,2,1,1,2.0,0.75,19.19,4756,0.0,2.0
5,2,36,1,1,6,7,12,2,5,5,2,1,1.0,0.49,19.68,3955,1.0,2.0
5,2,37,1,2,1,32,15,5,4,5,1,1,1.0,0.41,20.09,2674,1.0,2.0
5,2,38,1,2,2,36,12,2,3,2,1,1,1.0,0.47,20.56,2274,1.0,1.0
5,2,39,1,2,3,48,21,3,2,2,2,1,2.0,0.53,21.09,7778,0.0,2.0
5,2,40,1,2,4,38,9,2,5,2,1,1,1.0,0.33,21.42,9734,1.0,2.0
5,2,41,1,2,5,29,25,3,2,3,1,1,1.0,0.31,21.73,3137,1.0,1.0
5,2,42,1,2,6,18,24,4,2,4,1,1,1.0,0.14,21.87,1857,1.0,1.0
5,2,43,1,1,1,42,5,2,3,2,1,1,2.0,0.7,22.57,2418,0.0,1.0
5,2,44,1,1,2,10,1,3,5,3,1,1,2.0,0.54,23.11,3478,0.0,1.0
5,2,45,1,1,3,45,36,2,5,5,2,1,1.0,0.5,23.61,4434,1.0,2.0
5,2,46,1,2,1,25,9,2,5,2,1,1,1.0,0.24,23.85,2932,1.0,2.0
5,2,47,1,2,2,53,32,3,4,4,2,1,2.0,0.73,24.58,6211,0.0,2.0
5,2,48,1,2,3,4,23,3,2,2,2,1,2.0,0.69,25.27,2420,0.0,1.0
5,2,49,1,2,4,12,20,2,5,2,1,1,1.0,0.22,25.49,4944,1.0,2.0
5,2,50,1,1,1,6,36,3,5,3,1,1,2.0,0.41,25.9,3368,0.0,1.0
5,2,51,1,1,2,49,27,4,5,4,1,1,2.0,0.66,26.56,4334,0.0,1.0
5,2,52,1,1,3,32,28,3,4,4,2,1,1.0,0.21,26.77,5120,1.0,2.0
5,2,53,1,1,4,47,30,2,4,4,2,1,1.0,0.41,27.18,1010,1.0,1.0
5,2,54,1,2,1,7,13,4,2,3,0,0,0.0,0.0,27.18,1169,,
5,2,55,1,2,2,3,47,4,3,4,1,1,1.0,0.39,27.57,9712,1.0,
5,2,56,1,2,3,16,1,2,3,2,1,1,1.0,0.53,28.1,2993,1.0,1.0
5,2,57,1,1,1,29,28,4,3,3,2,1,1.0,0.4,28.5,2721,1.0,2.0
5,2,58,1,1,2,41,29,5,3,3,2,1,1.0,0.26,28.76,9237,1.0,1.0
5,2,59,1,1,3,54,38,4,3,3,2,1,1.0,0.38,29.14,7650,1.0,1.0
5,2,60,1,1,4,46,16,5,4,4,2,1,1.0,0.21,29.35,9010,1.0,1.0
5,2,61,1,1,5,31,22,4,5,4,1,1,2.0,0.66,30.01,1941,0.0,2.0
5,2,62,1,1,6,6,41,2,5,2,1,1,2.0,0.66,30.67,3330,0.0,1.0
5,2,63,1,2,1,9,5,5,2,2,2,1,2.0,0.67,31.34,5312,0.0,2.0
5,2,64,1,2,2,52,7,3,5,3,1,1,1.0,0.3,31.64,2148,1.0,2.0
5,2,65,1,1,1,23,40,5,4,5,1,1,2.0,0.8,32.44,5986,0.0,1.0
5,2,66,1,1,2,1,10,4,3,4,1,1,2.0,0.45,32.89,3985,0.0,1.0
5,2,67,1,2,1,11,31,4,5,4,1,1,1.0,0.38,33.27,1408,1.0,1.0
5,2,68,1,2,2,7,24,4,5,4,1,1,1.0,0.44,33.71,6548,1.0,1.0
5,2,69,1,2,3,40,10,5,3,5,1,1,1.0,0.42,34.13,7665,1.0,1.0
5,2,70,1,2,4,37,44,5,4,5,1,1,1.0,0.4,34.53,6163,1.0,1.0
5,2,71,1,2,5,41,18,3,4,4,2,1,2.0,0.67,35.2,2338,0.0,2.0
5,2,72,1,1,1,54,38,5,4,5,1,1,2.0,0.75,35.95,4274,0.0,2.0
5,2,73,1,1,2,9,38,3,4,4,2,1,1.0,0.4,36.35,2533,1.0,2.0
5,2,74,1,1,3,48,17,3,5,3,1,1,2.0,0.64,36.99,3011,0.0,2.0
5,2,75,1,1,4,13,48,2,4,4,2,1,1.0,0.29,37.28,1856,1.0,2.0
5,2,76,1,1,5,28,22,3,5,3,1,1,2.0,0.63,37.91,1628,0.0,2.0
5,2,77,1,2,1,53,7,3,5,3,1,1,1.0,0.16,38.07,4299,1.0,1.0
5,2,78,1,1,1,21,24,2,3,2,1,1,2.0,0.64,38.71,2838,0.0,1.0
5,2,79,1,2,1,33,8,2,3,2,1,1,1.0,0.35,39.06,1074,1.0,1.0
5,2,80,1,2,2,7,50,2,4,4,2,1,2.0,0.7,39.76,5586,0.0,2.0
5,2,81,1,2,3,24,53,3,2,2,2,1,2.0,0.84,40.6,1459,0.0,1.0
5,2,82,1,2,4,2,1,4,5,4,1,1,1.0,0.29,40.89,5638,1.0,2.0
5,2,83,1,2,5,6,5,5,2,2,2,1,2.0,0.74,41.63,5601,0.0,2.0
5,2,84,1,2,6,19,9,2,3,2,1,1,1.0,0.43,42.06,2290,1.0,2.0
5,2,1,2,2,1,3,26,4,5,5,2,1,2.0,0.78,42.84,2689,0.0,
5,2,2,2,2,2,52,11,4,2,4,1,1,1.0,0.22,43.06,3682,1.0,2.0
5,2,3,2,2,3,9,36,5,2,5,1,1,1.0,0.36,43.42,4978,1.0,1.0
5,2,4,2,2,4,14,49,3,4,3,1,1,1.0,0.36,43.78,2193,1.0,1.0
5,2,5,2,1,1,9,24,2,5,2,1,1,2.0,0.55,44.33,2229,0.0,1.0
5,2,6,2,1,2,37,45,5,4,5,1,1,2.0,0.58,44.91,2804,0.0,1.0
5,2,7,2,1,3,25,45,2,5,5,2,1,1.0,0.46,45.37,4915,1.0,2.0
5,2,8,2,1,4,8,1,5,4,4,2,1,1.0,0.32,45.69,7074,1.0,1.0
5,2,9,2,2,1,49,1,3,5,3,1,1,1.0,0.38,46.07,3106,1.0,2.0
5,2,10,2,1,1,53,50,2,3,2,1,1,2.0,0.68,46.75,6516,0.0,1.0
5,2,11,2,1,2,33,29,5,4,4,2,1,1.0,0.26,47.01,5810,1.0,2.0
5,2,12,2,1,3,1,27,3,5,5,2,1,1.0,0.27,47.28,3282,1.0,1.0
5,2,13,2,2,1,12,18,2,5,2,1,1,1.0,0.39,47.67,2210,1.0,2.0
5,2,14,2,2,2,39,37,4,3,4,1,1,1.0,0.22,47.89,6369,1.0,1.0
5,2,15,2,2,3,51,48,2,3,2,1,1,1.0,0.43,48.32,1521,1.0,1.0
5,2,16,2,2,4,6,20,3,4,3,1,1,1.0,0.4,48.72,2452,1.0,1.0
5,2,17,2,2,5,26,15,4,2,4,1,1,1.0,0.24,48.96,2643,1.0,1.0
5,2,18,2,2,6,38,44,4,3,4,1,1,1.0,0.3,49.26,2984,1.0,1.0
5,2,19,2,1,1,15,29,3,5,3,1,1,2.0,0.53,49.79,6531,0.0,1.0
5,2,20,2,1,2,33,25,3,5,5,2,1,1.0,0.07,49.86,4488,1.0,2.0
5,2,21,2,1,3,11,26,5,2,5,1,1,2.0,0.78,50.64,1122,0.0,2.0
5,2,22,2,1,4,39,29,4,2,2,2,1,1.0,0.27,50.91,1412,1.0,2.0
5,2,23,2,1,5,8,28,5,4,4,2,1,1.0,0.37,51.28,2322,1.0,1.0
5,2,24,2,1,6,2,44,2,3,3,2,1,1.0,0.36,51.64,3637,1.0,1.0
5,2,25,2,2,1,2,38,4,3,4,1,1,1.0,0.34,51.98,2978,1.0,2.0
5,2,26,2,2,2,35,21,3,2,2,2,1,2.0,0.55,52.53,3811,0.0,2.0
5,2,27,2,2,3,23,49,5,3,5,1,1,1.0,0.22,52.75,5170,1.0,2.0
5,2,28,2,1,1,7,10,4,3,3,2,1,1.0,0.29,53.04,2882,1.0,2.0
5,2,29,2,1,2,45,30,2,3,3,2,1,1.0,0.19,53.23,5667,1.0,1.0
5,2,30,2,2,1,9,35,4,5,5,2,1,2.0,0.54,53.77,3953,0.0,1.0
5,2,31,2,2,2,30,9,3,4,3,1,1,1.0,0.51,54.28,6194,1.0,2.0
5,2,32,2,2,3,24,28,3,2,2,2,1,2.0,0.67,54.95,1489,0.0,2.0
5,2,33,2,2,4,17,44,5,4,5,1,1,1.0,0.19,55.14,3129,1.0,2.0
5,2,34,2,2,5,27,13,2,3,2,1,1,1.0,0.33,55.47,1329,1.0,1.0
5,2,35,2,1,1,3,4,4,2,4,1,1,2.0,0.53,56.0,3891,0.0,1.0
5,2,36,2,1,2,30,14,4,5,5,2,1,1.0,0.17,56.17,3860,1.0,2.0
5,2,37,2,1,3,34,3,2,4,2,1,1,2.0,0.64,56.81,3037,0.0,2.0
5,2,38,2,1,4,1,53,3,5,3,1,1,2.0,0.78,57.59,5106,0.0,1.0
5,2,39,2,1,5,49,50,4,5,4,1,1,2.0,0.68,58.27,5312,0.0,1.0
5,2,40,2,2,1,43,16,5,3,3,2,1,2.0,0.74,59.01,4049,0.0,2.0
5,2,41,2,2,2,38,17,4,5,5,2,1,2.0,0.53,59.54,2144,0.0,1.0
5,2,42,2,1,1,45,17,5,2,2,2,1,1.0,0.28,59.82,7181,1.0,1.0
5,2,43,2,2,1,40,22,4,3,4,1,1,1.0,0.3,60.12,3275,1.0,2.0
5,2,44,2,2,2,37,31,4,2,4,1,1,1.0,0.19,60.31,3402,1.0,1.0
5,2,45,2,1,1,52,30,3,5,3,1,1,2.0,0.51,60.82,2417,0.0,1.0
5,2,46,2,1,2,32,17,3,2,2,2,1,1.0,0.44,61.26,7003,1.0,2.0
5,2,47,2,2,1,34,33,2,5,2,1,1,1.0,0.33,61.59,4115,1.0,2.0
5,2,48,2,2,2,13,29,3,2,2,2,1,2.0,0.59,62.18,1570,0.0,2.0
5,2,49,2,2,3,5,8,4,5,5,2,1,2.0,0.76,62.94,2401,0.0,1.0
5,2,50,2,2,4,43,47,3,2,2,2,1,2.0,0.69,63.63,5522,0.0,1.0
5,2,51,2,2,5,29,2,2,4,2,1,1,1.0,0.22,63.85,2754,1.0,2.0
5,2,52,2,1,1,51,28,2,3,3,2,1,1.0,0.49,64.34,1812,1.0,2.0
5,2,53,2,1,2,17,24,3,5,3,1,1,2.0,0.7,65.04,2418,0.0,2.0
5,2,54,2,1,3,48,37,4,2,2,2,1,1.0,0.51,65.55,2787,1.0,2.0
5,2,55,2,1,4,18,17,4,3,3,2,1,1.0,0.47,66.02,2450,1.0,1.0
5,2,56,2,1,5,1,37,3,4,4,2,1,1.0,0.25,66.27,6578,1.0,1.0
5,2,57,2,1,6,13,27,2,4,2,1,1,2.0,0.51,66.78,2307,0.0,2.0
5,2,58,2,2,1,24,15,2,5,2,1,1,1.0,0.32,67.1,2897,1.0,1.0
5,2,59,2,2,2,27,20,5,3,5,1,1,1.0,0.29,67.39,1026,1.0,1.0
5,2,60,2,2,3,54,21,5,2,2,2,1,2.0,0.57,67.96,3699,0.0,2.0
5,2,61,2,2,4,27,36,2,4,4,2,1,2.0,0.73,68.69,3235,0.0,1.0
5,2,62,2,2,5,48,24,5,3,5,1,1,1.0,0.51,69.2,2963,1.0,2.0
5,2,63,2,2,6,47,42,2,4,2,1,1,1.0,0.27,69.47,2000,1.0,1.0
5,2,64,2,1,1,15,35,5,4,4,2,1,1.0,0.23,69.7,2081,1.0,2.0
5,2,65,2,1,2,8,12,5,4,4,2,1,1.0,0.3,70.0,1424,1.0,1.0
5,2,66,2,1,3,39,23,2,5,5,2,1,1.0,0.41,70.41,3908,1.0,1.0
5,2,67,2,1,4,51,12,3,4,3,1,1,2.0,0.57,70.98,4194,0.0,2.0
5,2,68,2,1,5,34,30,4,5,5,2,1,1.0,0.19,71.17,2019,1.0,2.0
5,2,69,2,2,1,51,11,5,3,3,2,1,2.0,0.65,71.82,1441,0.0,1.0
5,2,70,2,2,2,35,1,4,2,2,2,1,2.0,0.66,72.48,2338,0.0,1.0
5,2,71,2,2,3,26,9,2,5,5,2,1,2.0,0.72,73.2,3587,0.0,1.0
5,2,72,2,1,1,53,23,5,2,5,1,1,2.0,0.6,73.8,1859,0.0,2.0
5,2,73,2,1,2,42,9,4,3,3,2,1,1.0,0.32,74.12,2085,1.0,2.0
5,2,74,2,1,3,43,31,5,2,3,0,0,0.0,0.0,74.12,2723,,
5,2,75,2,1,4,29,2,3,4,3,1,1,2.0,0.62,74.74,1267,0.0,
5,2,76,2,2,1,6,13,5,3,3,2,1,2.0,0.66,75.4,1426,0.0,2.0
5,2,77,2,2,2,51,13,2,3,3,2,1,2.0,0.85,76.25,1074,0.0,1.0
5,2,78,2,2,3,23,38,3,4,4,2,1,2.0,0.6,76.85,1075,0.0,1.0
5,2,79,2,2,4,33,44,3,2,2,2,1,2.0,0.51,77.36,9219,0.0,1.0
5,2,80,2,1,1,3,48,5,3,5,1,1,2.0,0.72,78.08,4339,0.0,2.0
5,2,81,2,1,2,14,3,5,2,2,2,1,1.0,0.23,78.31,6130,1.0,2.0
5,2,82,2,1,3,20,44,2,4,2,1,1,2.0,0.67,78.98,2866,0.0,2.0
5,2,83,2,2,1,19,23,2,4,2,1,1,1.0,0.26,79.24,4510,1.0,1.0
5,2,84,2,1,1,15,44,3,2,3,1,1,2.0,0.73,79.97,3330,0.0,1.0
5,2,1,3,2,1,30,5,3,4,4,2,1,2.0,0.73,80.7,6098,0.0,
5,2,2,3,2,2,13,51,3,4,4,2,1,2.0,0.64,81.34,1458,0.0,1.0
5,2,3,3,1,1,48,52,3,2,2,2,1,1.0,0.09,81.43,1633,1.0,1.0
5,2,4,3,1,2,28,5,3,5,5,2,1,1.0,0.35,81.78,6740,1.0,1.0
5,2,5,3,2,1,44,7,5,2,5,1,1,1.0,0.52,82.3,3848,1.0,2.0
5,2,6,3,2,2,42,15,2,5,2,1,1,1.0,0.45,82.75,3748,1.0,1.0
5,2,7,3,2,3,50,53,3,5,3,1,1,1.0,0.15,82.9,10786,1.0,1.0
5,2,8,3,2,4,35,23,2,3,3,2,1,2.0,0.66,83.56,2171,0.0,2.0
5,2,9,3,2,5,28,25,5,2,5,1,1,1.0,0.25,83.81,1394,1.0,2.0
5,2,10,3,2,6,5,48,4,5,4,1,1,1.0,0.21,84.02,4209,1.0,1.0
5,2,11,3,1,1,29,38,4,5,4,1,1,2.0,0.52,84.54,2307,0.0,1.0
5,2,12,3,1,2,17,43,3,4,4,2,1,1.0,0.37,84.91,4420,1.0,2.0
5,2,13,3,1,3,41,35,5,3,3,2,1,1.0,0.28,85.19,4122,1.0,1.0
5,2,14,3,1,4,18,9,5,4,5,1,1,2.0,0.67,85.86,4083,0.0,2.0
5,2,15,3,1,5,8,36,3,2,2,2,1,1.0,0.29,86.15,4000,1.0,2.0
5,2,16,3,2,1,6,28,4,2,2,2,1,2.0,0.61,86.76,2544,0.0,1.0
5,2,17,3,1,1,37,5,3,5,5,2,1,1.0,0.38,87.14,3937,1.0,1.0
5,2,18,3,2,1,4,2,2,5,5,2,1,2.0,0.75,87.89,2386,0.0,1.0
5,2,19,3,2,2,12,1,2,4,2,1,1,1.0,0.58,88.47,6519,1.0,2.0
5,2,20,3,2,3,31,22,2,3,3,2,1,2.0,0.51,88.98,6286,0.0,2.0
5,2,21,3,2,4,19,6,2,4,2,1,1,1.0,0.21,89.19,3476,1.0,2.0
5,2,22,3,2,5,26,13,2,5,5,2,1,2.0,0.79,89.98,2210,0.0,2.0
5,2,23,3,1,1,51,21,2,5,2,1,1,2.0,0.62,90.6,1889,0.0,2.0
5,2,24,3,1,2,34,7,5,2,2,2,1,1.0,0.17,90.77,2215,1.0,2.0
5,2,25,3,1,3,50,4,4,3,4,1,1,2.0,0.7,91.47,2259,0.0,2.0
5,2,26,3,1,4,16,33,5,4,5,1,1,2.0,0.85,92.32,2611,0.0,1.0
5,2,27,3,2,1,9,30,4,2,4,1,1,1.0,0.42,92.74,1360,1.0,1.0
5,2,28,3,2,2,12,5,2,3,2,1,1,1.0,0.56,93.3,2002,1.0,1.0
5,2,29,3,2,3,28,4,4,5,4,1,1,1.0,0.39,93.69,4401,1.0,1.0
5,2,30,3,1,1,54,51,5,3,3,2,1,1.0,0.55,94.24,5745,1.0,2.0
5,2,31,3,1,2,40,5,3,2,2,2,1,1.0,0.29,94.53,2546,1.0,1.0
5,2,32,3,1,3,54,38,4,3,3,2,1,1.0,0.2,94.73,3187,1.0,1.0
5,2,33,3,1,4,28,22,4,2,4,1,1,2.0,0.64,95.37,1812,0.0,2.0
5,2,34,3,1,5,4,47,5,4,5,1,1,2.0,0.81,96.18,2418,0.0,1.0
5,2,35,3,1,6,48,1,3,4,4,2,1,1.0,0.2,96.38,1604,1.0,2.0
5,2,36,3,2,1,20,40,4,5,4,1,1,1.0,0.41,96.79,1649,1.0,2.0
5,2,37,3,2,2,28,12,3,5,5,2,1,2.0,0.6,97.39,1747,0.0,2.0
5,2,38,3,2,3,39,48,4,2,4,1,1,1.0,0.4,97.79,2196,1.0,2.0
5,2,39,3,2,4,13,8,5,3,5,1,1,1.0,0.2,97.99,1649,1.0,1.0
5,2,40,3,1,1,46,28,3,4,3,1,1,2.0,0.68,98.67,3352,0.0,1.0
5,2,41,3,1,2,18,31,4,3,3,2,1,1.0,0.1,98.77,3346,1.0,2.0
5,2,42,3,1,3,15,39,4,5,4,1,1,2.0,0.61,99.38,2416,0.0,2.0
5,2,43,3,2,1,28,15,3,5,3,1,1,1.0,0.39,99.77,3235,1.0,1.0
5,2,44,3,1,1,1,32,3,4,3,1,1,2.0,0.63,100.4,1411,0.0,1.0
5,2,45,3,1,2,41,25,3,2,2,2,1,1.0,0.48,100.88,6577,1.0,2.0
5,2,46,3,1,3,29,19,4,2,4,1,1,2.0,0.59,101.47,1186,0.0,2.0
5,2,47,3,2,1,8,35,2,4,2,1,1,1.0,0.06,101.53,1713,1.0,1.0
5,2,48,3,2,2,18,30,2,3,2,1,1,1.0,0.19,101.72,3584,1.0,1.0
5,2,49,3,2,3,33,35,4,5,4,1,1,1.0,0.46,102.18,2644,1.0,1.0
5,2,50,3,2,4,47,19,3,2,2,2,1,2.0,0.65,102.83,2915,0.0,2.0
5,2,51,3,2,5,48,53,5,2,2,2,1,2.0,0.71,103.54,2544,0.0,1.0
5,2,52,3,1,1,35,51,4,2,2,2,1,1.0,0.44,103.98,1415,1.0,1.0
5,2,53,3,1,2,11,2,5,4,5,1,1,2.0,0.42,104.4,7408,0.0,2.0
5,2,54,3,1,3,24,37,5,4,4,2,1,1.0,0.26,104.66,6773,1.0,2.0
5,2,55,3,1,4,17,51,5,3,3,2,1,1.0,0.25,104.91,1524,1.0,1.0
5,2,56,3,2,1,43,16,4,3,3,2,1,2.0,0.55,105.46,4467,0.0,1.0
5,2,57,3,2,2,33,51,2,3,3,2,1,2.0,0.65,106.11,1768,0.0,1.0
5,2,58,3,2,3,47,16,5,4,5,1,1,1.0,0.51,106.62,2950,1.0,2.0
5,2,59,3,1,1,25,43,5,4,5,1,1,2.0,0.66,107.28,2146,0.0,1.0
5,2,60,3,1,2,29,44,5,2,5,1,1,2.0,0.81,108.09,2760,0.0,1.0
5,2,61,3,1,3,48,24,3,2,2,2,1,1.0,0.25,108.34,3510,1.0,2.0
5,2,62,3,1,4,41,1,2,5,5,2,1,1.0,0.33,108.67,2580,1.0,1.0
5,2,63,3,1,5,3,21,4,2,2,2,1,1.0,0.24,108.91,1650,1.0,1.0
5,2,64,3,2,1,15,34,2,5,2,1,1,1.0,0.4,109.31,2659,1.0,2.0
5,2,65,3,2,2,17,15,5,3,5,1,1,1.0,0.3,109.61,2674,1.0,1.0
5,2,66,3,1,1,46,27,2,3,2,1,1,2.0,0.72,110.33,2052,0.0,1.0
5,2,67,3,1,2,25,7,2,3,3,2,1,1.0,0.41,110.74,3686,1.0,2.0
5,2,68,3,2,1,3,52,5,2,2,2,1,2.0,0.66,111.4,1666,0.0,1.0
5,2,69,3,2,2,9,45,3,4,4,2,1,2.0,0.77,112.17,2673,0.0,1.0
5,2,70,3,2,3,26,31,3,5,5,2,1,2.0,0.94,113.11,1779,0.0,1.0
5,2,71,3,2,4,27,21,2,4,2,1,1,1.0,0.39,113.5,1300,1.0,2.0
5,2,72,3,2,5,53,9,2,4,4,2,1,2.0,0.67,114.17,1295,0.0,2.0
5,2,73,3,2,6,49,19,4,5,4,1,1,1.0,0.44,114.61,1420,1.0,2.0
5,2,74,3,1,1,25,11,2,5,2,1,1,2.0,0.67,115.28,3186,0.0,1.0
5,2,75,3,2,1,28,32,2,4,2,1,1,1.0,0.2,115.48,897,1.0,1.0
5,2,76,3,2,2,23,19,2,4,4,2,1,2.0,0.72,116.2,3316,0.0,2.0
5,2,77,3,2,3,16,30,4,3,4,1,1,1.0,0.33,116.53,4147,1.0,2.0
5,2,78,3,2,4,53,49,3,5,5,2,1,2.0,0.63,117.16,5400,0.0,2.0
5,2,79,3,1,1,26,4,4,3,4,1,1,2.0,0.82,117.98,1514,0.0,2.0
5,2,80,3,1,2,11,45,5,2,5,1,1,2.0,0.89,118.87,1237,0.0,1.0
5,2,81,3,1,3,35,39,5,3,5,1,1,2.0,0.61,119.48,2770,0.0,1.0
5,2,82,3,1,4,10,6,4,3,4,1,1,2.0,0.68,120.16,1313,0.0,1.0
5,2,83,3,1,5,25,36,5,3,5,1,1,2.0,0.57,120.73,10467,0.0,1.0
5,2,84,3,1,6,42,38,3,2,2,2,1,1.0,0.41,121.14,4019,1.0,2.0
6,1,1,1,2,1,29,20,5,4,5,1,1,2.0,0.62,0.62,6304,1.0,
6,1,2,1,2,2,7,2,5,2,2,2,1,1.0,0.14,0.76,6594,0.0,2.0
6,1,3,1,2,3,16,1,5,2,2,2,1,1.0,0.35,1.11,3416,0.0,1.0
6,1,4,1,2,4,14,19,5,3,5,1,1,2.0,0.7,1.81,13677,1.0,2.0
6,1,5,1,2,5,27,5,2,5,5,2,1,1.0,0.2,2.01,8119,0.0,2.0
6,1,6,1,1,1,16,5,3,2,3,1,1,1.0,0.47,2.48,2192,0.0,2.0
6,1,7,1,1,2,25,41,2,4,4,2,1,2.0,0.81,3.29,3798,1.0,2.0
6,1,8,1,2,1,14,17,2,4,2,1,1,2.0,0.66,3.95,4363,1.0,2.0
6,1,9,1,2,2,28,3,5,4,5,1,1,2.0,0.71,4.66,10170,1.0,1.0
6,1,10,1,2,3,1,37,3,4,3,1,1,2.0,0.69,5.35,6897,1.0,1.0
6,1,11,1,1,1,36,1,2,3,3,2,1,2.0,0.65,6.0,5834,1.0,2.0
6,1,12,1,1,2,7,21,5,2,2,2,1,2.0,0.75,6.75,9917,1.0,1.0
6,1,13,1,1,3,40,36,2,4,2,1,1,1.0,0.26,7.01,6510,0.0,2.0
6,1,14,1,1,4,47,39,5,4,5,1,1,1.0,0.59,7.6,5288,0.0,1.0
6,1,15,1,2,1,3,39,5,4,4,2,1,1.0,0.32,7.92,4626,0.0,2.0
6,1,16,1,2,2,35,24,2,3,2,1,1,2.0,0.68,8.6,7382,1.0,2.0
6,1,17,1,2,3,33,48,2,4,2,1,1,2.0,0.79,9.39,6380,1.0,1.0
6,1,18,1,2,4,44,19,3,2,2,2,1,1.0,0.34,9.73,11002,0.0,2.0
6,1,19,1,2,5,37,47,5,4,5,1,1,2.0,0.66,10.39,5280,1.0,2.0
6,1,20,1,2,6,54,16,4,3,4,1,1,2.0,0.57,10.96,3690,1.0,1.0
6,1,21,1,1,1,43,17,4,2,4,1,1,1.0,0.37,11.33,3988,0.0,1.0
6,1,22,1,1,2,7,19,4,5,4,1,1,1.0,0.18,11.51,2850,0.0,1.0
6,1,23,1,1,3,31,50,3,4,3,1,1,1.0,0.42,11.93,12365,0.0,1.0
6,1,24,1,1,4,52,27,3,5,4,0,0,0.0,0.0,11.93,3868,,
6,1,25,1,1,5,22,13,4,5,5,2,1,2.0,0.86,12.79,3769,1.0,
6,1,26,1,2,1,13,1,4,2,2,2,1,1.0,0.25,13.04,3936,0.0,1.0
6,1,27,1,2,2,22,20,3,5,5,2,1,1.0,0.43,13.47,8271,0.0,1.0
6,1,28,1,2,3,46,41,3,5,5,2,1,1.0,0.48,13.95,3810,0.0,1.0
6,1,29,1,2,4,46,27,4,2,4,1,1,2.0,0.48,14.43,4232,1.0,2.0
6,1,30,1,1,1,30,21,5,2,2,2,1,2.0,0.5,14.93,4380,1.0,2.0
6,1,31,1,1,2,37,46,3,4,4,2,1,2.0,0.73,15.66,9273,1.0,1.0
6,1,32,1,1,3,30,7,5,2,5,1,1,1.0,0.29,15.95,4404,0.0,2.0
6,1,33,1,1,4,31,54,4,5,5,2,1,2.0,0.75,16.7,13585,1.0,2.0
6,1,34,1,1,5,16,8,2,5,5,2,1,2.0,0.76,17.46,7600,1.0,1.0
6,1,35,1,1,6,18,39,2,5,2,1,1,1.0,0.42,17.88,11245,0.0,2.0
6,1,36,1,2,1,42,49,3,2,2,2,1,1.0,0.49,18.37,7673,0.0,2.0
6,1,37,1,1,1,19,38,2,4,2,1,1,1.0,0.41,18.78,3923,0.0,2.0
6,1,38,1,1,2,31,43,3,2,2,2,1,2.0,0.81,19.59,3620,1.0,2.0
6,1,39,1,1,3,48,49,2,4,4,2,1,2.0,0.53,20.12,12081,1.0,1.0
6,1,40,1,2,1,18,44,3,5,5,2,1,1.0,0.33,20.45,7419,0.0,1.0
6,1,41,1,2,2,12,51,2,5,2,1,1,2.0,0.65,21.1,16735,1.0,2.0
6,1,42,1,1,1,41,18,3,5,5,2,1,2.0,0.48,21.58,9984,1.0,2.0
6,1,43,1,2,1,41,11,2,3,3,2,1,1.0,0.36,21.94,7197,0.0,1.0
6,1,44,1,2,2,39,3,5,4,5,1,1,2.0,0.54,22.48,10907,1.0,2.0
6,1,45,1,2,3,40,54,3,5,3,1,1,2.0,0.83,23.31,11108,1.0,1.0
6,1,46,1,1,1,38,14,2,5,2,1,1,1.0,0.24,23.55,8070,0.0,1.0
6,1,47,1,1,2,40,34,4,3,4,1,1,1.0,0.4,23.95,3376,0.0,1.0
6,1,48,1,1,3,25,8,2,3,2,1,1,1.0,0.36,24.31,6278,0.0,1.0
6,1,49,1,1,4,49,26,2,5,5,2,1,2.0,0.56,24.87,4745,1.0,2.0
6,1,50,1,1,5,41,7,4,3,4,1,1,1.0,0.08,24.95,12042,0.0,2.0
6,1,51,1,1,6,12,44,3,4,4,2,1,2.0,0.66,25.61,6837,1.0,2.0
6,1,52,1,2,1,41,14,3,5,3,1,1,2.0,0.55,26.16,7457,1.0,2.0
6,1,53,1,2,2,11,30,3,2,3,1,1,2.0,0.74,26.9,9765,1.0,1.0
6,1,54,1,2,3,48,32,5,3,3,2,1,1.0,0.39,27.29,8892,0.0,2.0
6,1,55,1,2,4,42,38,2,3,2,1,1,2.0,0.87,28.16,7174,1.0,2.0
6,1,56,1,2,5,22,18,3,2,3,1,1,2.0,0.74,28.9,4532,1.0,1.0
6,1,57,1,1,1,5,25,3,4,3,1,1,1.0,0.26,29.16,7932,0.0,1.0
6,1,58,1,1,2,16,21,4,3,3,2,1,2.0,0.71,29.87,4732,1.0,2.0
6,1,59,1,1,3,39,54,3,4,4,2,1,2.0,0.55,30.42,13276,1.0,1.0
6,1,60,1,2,1,35,15,4,5,4,1,1,2.0,0.66,31.08,7863,1.0,2.0
6,1,61,1,2,2,37,40,5,2,2,2,1,1.0,0.33,31.41,12410,0.0,2.0
6,1,62,1,1,1,52,22,2,3,3,2,1,2.0,0.67,32.08,5815,1.0,1.0
6,1,63,1,1,2,23,50,2,3,2,1,1,1.0,0.3,32.38,4364,0.0,2.0
6,1,64,1,1,3,34,6,5,2,5,1,1,1.0,0.46,32.84,10042,0.0,1.0
6,1,65,1,1,4,27,50,5,3,3,2,1,2.0,0.45,33.29,4439,1.0,2.0
6,1,66,1,1,5,38,20,3,2,3,1,1,1.0,0.38,33.67,12226,0.0,2.0
6,1,67,1,2,1,12,53,4,3,4,1,1,2.0,0.77,34.44,8823,1.0,1.0
6,1,68,1,2,2,5,38,5,3,5,1,1,2.0,0.75,35.19,7732,1.0,1.0
6,1,69,1,2,3,52,5,3,4,4,2,1,1.0,0.4,35.59,19387,0.0,2.0
6,1,70,1,2,4,51,41,5,3,5,1,1,2.0,0.67,36.26,6706,1.0,2.0
6,1,71,1,1,1,19,24,4,3,3,2,1,2.0,0.75,37.01,3395,1.0,2.0
6,1,72,1,1,2,11,44,4,5,5,2,1,2.0,0.73,37.74,4633,1.0,1.0
6,1,73,1,2,1,45,5,4,2,4,1,1,2.0,0.64,38.38,3053,1.0,2.0
6,1,74,1,2,2,53,31,4,5,4,1,1,2.0,0.62,39.0,5360,1.0,1.0
6,1,75,1,2,3,48,33,2,4,2,1,1,2.0,0.63,39.63,5352,1.0,1.0
6,1,76,1,2,4,50,38,4,2,4,1,1,2.0,0.49,40.12,5519,1.0,1.0
6,1,77,1,2,5,5,21,2,5,2,1,1,2.0,0.64,40.76,2927,1.0,1.0
6,1,78,1,2,6,36,33,4,3,4,1,1,2.0,0.68,41.44,3144,1.0,1.0
6,1,79,1,1,1,20,10,5,3,3,2,1,2.0,0.7,42.14,4552,1.0,2.0
6,1,80,1,1,2,9,44,5,4,4,2,1,2.0,0.84,42.98,4960,1.0,1.0
6,1,81,1,1,3,50,37,5,3,3,2,1,2.0,0.63,43.61,2551,1.0,1.0
6,1,82,1,1,4,24,16,4,2,2,2,1,2.0,0.74,44.35,3998,1.0,1.0
6,1,83,1,2,1,34,27,4,5,4,1,1,2.0,0.76,45.11,4332,1.0,2.0
6,1,84,1,1,1,16,19,4,2,2,2,1,2.0,0.78,45.89,2987,1.0,2.0
6,1,1,2,1,1,28,39,2,3,3,2,1,2.0,0.55,46.44,10185,1.0,
6,1,2,2,1,2,43,46,3,2,2,2,1,2.0,0.69,47.13,3471,1.0,1.0
6,1,3,2,1,3,37,31,3,5,5,2,1,2.0,0.7,47.83,3665,1.0,1.0
6,1,4,2,1,4,26,17,4,2,2,2,1,2.0,0.55,48.38,2732,1.0,1.0
6,1,5,2,2,1,18,17,4,3,4,1,1,2.0,0.58,48.96,6908,1.0,2.0
6,1,6,2,1,1,53,50,5,3,3,2,1,2.0,0.79,49.75,3430,1.0,2.0
6,1,7,2,1,2,36,38,4,2,2,2,1,2.0,0.65,50.4,4314,1.0,1.0
6,1,8,2,1,3,26,39,4,3,3,2,1,2.0,0.71,51.11,7034,1.0,1.0
6,1,9,2,1,4,3,54,5,4,4,2,1,2.0,0.68,51.79,3054,1.0,1.0
6,1,10,2,1,5,6,52,3,4,4,2,1,2.0,0.59,52.38,2834,1.0,1.0
6,1,11,2,1,6,34,51,3,4,4,2,1,2.0,0.6,52.98,4190,1.0,1.0
6,1,12,2,2,1,14,32,4,3,4,1,1,2.0,0.72,53.7,3203,1.0,2.0
6,1,13,2,2,2,52,41,4,2,4,1,1,2.0,0.56,54.26,4305,1.0,1.0
6,1,14,2,2,3,31,39,3,5,3,1,1,2.0,0.76,55.02,3906,1.0,1.0
6,1,15,2,2,4,8,53,3,4,3,1,1,2.0,0.73,55.75,4211,1.0,1.0
6,1,16,2,2,5,8,6,5,3,5,1,1,2.0,0.57,56.32,1929,1.0,1.0
6,1,17,2,1,1,50,47,5,3,3,2,1,2.0,0.64,56.96,2842,1.0,2.0
6,1,18,2,1,2,38,8,5,2,2,2,1,2.0,0.53,57.49,2437,1.0,1.0
6,1,19,2,1,3,34,22,4,2,2,2,1,2.0,0.41,57.9,5425,1.0,1.0
6,1,20,2,1,4,49,1,4,5,5,2,1,2.0,0.78,58.68,4150,1.0,1.0
6,1,21,2,1,5,11,9,5,3,3,2,1,2.0,0.61,59.29,2733,1.0,1.0
6,1,22,2,2,1,20,9,2,4,2,1,1,2.0,0.71,60.0,2925,1.0,2.0
6,1,23,2,2,2,18,4,2,5,2,1,1,2.0,0.69,60.69,4278,1.0,1.0
6,1,24,2,2,3,11,31,4,2,4,1,1,2.0,0.67,61.36,3785,1.0,1.0
6,1,25,2,2,4,2,40,3,5,3,1,1,2.0,0.55,61.91,4895,1.0,1.0
6,1,26,2,2,5,52,22,3,4,3,1,1,2.0,0.56,62.47,2857,1.0,1.0
6,1,27,2,2,6,23,16,5,3,5,1,1,2.0,0.62,63.09,3076,1.0,1.0
6,1,28,2,1,1,51,41,3,2,3,1,1,1.0,0.19,63.28,2647,0.0,1.0
6,1,29,2,1,2,18,45,5,4,4,2,1,2.0,0.54,63.82,6266,1.0,2.0
6,1,30,2,2,1,33,51,5,4,5,1,1,2.0,0.84,64.66,4749,1.0,2.0
6,1,31,2,2,2,5,36,2,5,2,1,1,2.0,0.67,65.33,5020,1.0,1.0
6,1,32,2,2,3,39,8,4,3,3,2,1,1.0,0.19,65.52,2609,0.0,2.0
6,1,33,2,2,4,12,45,2,3,2,1,1,2.0,0.66,66.18,3510,1.0,2.0
6,1,34,2,1,1,44,8,5,2,2,2,1,2.0,0.53,66.71,3800,1.0,2.0
6,1,35,2,1,2,25,51,2,3,3,2,1,2.0,0.51,67.22,4589,1.0,1.0
6,1,36,2,1,3,45,4,3,2,2,2,1,2.0,0.64,67.86,3955,1.0,1.0
6,1,37,2,2,1,4,8,4,5,4,1,1,2.0,0.78,68.64,3410,1.0,2.0
6,1,38,2,2,2,11,5,4,5,4,1,1,2.0,0.68,69.32,1831,1.0,1.0
6,1,39,2,1,1,37,9,2,5,5,2,1,2.0,0.74,70.06,3451,1.0,2.0
6,1,40,2,2,1,31,29,4,5,4,1,1,2.0,0.53,70.59,5086,1.0,2.0
6,1,41,2,2,2,17,35,5,2,5,1,1,2.0,0.61,71.2,1488,1.0,1.0
6,1,42,2,2,3,46,16,5,4,5,1,1,2.0,0.64,71.84,3970,1.0,1.0
6,1,43,2,1,1,44,42,3,2,2,2,1,2.0,0.52,72.36,2241,1.0,2.0
6,1,44,2,1,2,38,11,2,4,4,2,1,2.0,0.51,72.87,2421,1.0,1.0
6,1,45,2,2,1,6,32,3,2,3,1,1,2.0,0.78,73.65,3714,1.0,2.0
6,1,46,2,2,2,19,12,2,3,2,1,1,2.0,0.67,74.32,4906,1.0,1.0
6,1,47,2,2,3,21,33,5,2,5,1,1,2.0,0.59,74.91,2244,1.0,1.0
6,1,48,2,2,4,45,51,2,4,2,1,1,2.0,0.76,75.67,5448,1.0,1.0
6,1,49,2,2,5,28,24,4,5,4,1,1,2.0,0.69,76.36,2667,1.0,1.0
6,1,50,2,2,6,26,32,2,4,2,1,1,2.0,0.55,76.91,3086,1.0,1.0
6,1,51,2,1,1,20,27,3,5,5,2,1,2.0,0.82,77.73,4464,1.0,2.0
6,1,52,2,1,2,52,39,4,3,3,2,1,2.0,0.7,78.43,2730,1.0,1.0
6,1,53,2,1,3,5,18,3,4,4,2,1,2.0,0.84,79.27,4747,1.0,1.0
6,1,54,2,2,1,14,44,2,4,2,1,1,2.0,0.8,80.07,3706,1.0,2.0
6,1,55,2,2,2,21,13,2,4,2,1,1,2.0,0.59,80.66,3603,1.0,1.0
6,1,56,2,2,3,1,4,5,2,5,1,1,2.0,0.51,81.17,4625,1.0,1.0
6,1,57,2,1,1,6,34,2,3,3,2,1,2.0,0.66,81.83,4725,1.0,2.0
6,1,58,2,1,2,52,42,2,5,5,2,1,2.0,0.63,82.46,5462,1.0,1.0
6,1,59,2,1,3,44,23,4,2,2,2,1,2.0,0.57,83.03,3449,1.0,1.0
6,1,60,2,1,4,35,26,3,5,5,2,1,2.0,0.73,83.76,7308,1.0,1.0
6,1,61,2,1,5,32,53,5,4,4,2,1,2.0,0.84,84.6,4246,1.0,1.0
6,1,62,2,2,1,5,23,3,2,3,1,1,2.0,0.6,85.2,3193,1.0,2.0
6,1,63,2,2,2,7,22,2,5,2,1,1,2.0,0.57,85.77,1624,1.0,1.0
6,1,64,2,2,3,11,51,4,3,4,1,1,2.0,0.64,86.41,4580,1.0,1.0
6,1,65,2,2,4,53,5,2,5,5,2,1,1.0,0.41,86.82,3051,0.0,2.0
6,1,66,2,2,5,41,9,3,4,3,1,1,2.0,0.57,87.39,3550,1.0,2.0
6,1,67,2,1,1,18,19,4,2,2,2,1,2.0,0.53,87.92,4189,1.0,2.0
6,1,68,2,1,2,10,6,4,3,3,2,1,2.0,0.65,88.57,6547,1.0,1.0
6,1,69,2,1,3,20,11,3,5,5,2,1,2.0,0.66,89.23,3258,1.0,1.0
6,1,70,2,1,4,2,8,5,4,4,2,1,2.0,0.72,89.95,5109,1.0,1.0
6,1,71,2,1,5,36,42,4,5,5,2,1,2.0,0.6,90.55,3031,1.0,1.0
6,1,72,2,1,6,3,5,3,2,2,2,1,2.0,0.65,91.2,2395,1.0,1.0
6,1,73,2,2,1,33,30,5,2,5,1,1,2.0,0.62,91.82,4521,1.0,2.0
6,1,74,2,2,2,53,46,2,3,2,1,1,2.0,0.66,92.48,3970,1.0,1.0
6,1,75,2,2,3,35,28,2,3,2,1,1,2.0,0.85,93.33,3488,1.0,1.0
6,1,76,2,2,4,34,24,5,4,5,1,1,2.0,0.6,93.93,3698,1.0,1.0
6,1,77,2,1,1,3,23,5,3,5,1,1,1.0,0.17,94.1,3979,0.0,1.0
6,1,78,2,2,1,25,51,2,4,2,1,1,2.0,0.72,94.82,3706,1.0,1.0
6,1,79,2,2,2,1,18,3,4,3,1,1,2.0,0.56,95.38,3827,1.0,1.0
6,1,80,2,1,1,4,49,2,5,5,2,1,2.0,0.67,96.05,4039,1.0,2.0
6,1,81,2,1,2,4,21,5,3,3,2,1,2.0,0.59,96.64,3732,1.0,1.0
6,1,82,2,1,3,43,40,3,5,5,2,1,2.0,0.73,97.37,4220,1.0,1.0
6,1,83,2,1,4,39,5,5,2,2,2,1,2.0,0.73,98.1,4032,1.0,1.0
6,1,84,2,2,1,52,23,4,5,5,2,1,1.0,0.31,98.41,2428,0.0,1.0
6,1,1,3,1,1,14,13,4,3,3,2,1,2.0,0.42,98.83,3576,1.0,
6,1,2,3,1,2,16,31,3,5,5,2,1,2.0,0.68,99.51,1847,1.0,1.0
6,1,3,3,2,1,41,54,3,2,2,2,1,1.0,0.52,100.03,2506,0.0,1.0
6,1,4,3,2,2,48,18,2,5,2,1,1,2.0,0.79,100.82,10163,1.0,2.0
6,1,5,3,1,1,17,12,3,5,5,2,1,2.0,0.48,101.3,3242,1.0,2.0
6,1,6,3,2,1,24,8,5,3,5,1,1,2.0,0.66,101.96,2135,1.0,2.0
6,1,7,3,2,2,18,15,3,5,3,1,1,2.0,0.59,102.55,2414,1.0,1.0
6,1,8,3,2,3,23,21,3,2,4,0,0,0.0,0.0,102.55,2267,,
6,1,9,3,1,1,6,26,4,5,4,1,1,1.0,0.21,102.76,3162,0.0,
6,1,10,3,1,2,18,42,5,4,4,2,1,2.0,0.52,103.28,6089,1.0,2.0
6,1,11,3,1,3,45,53,4,3,3,2,1,2.0,0.7,103.98,6659,1.0,1.0
6,1,12,3,1,4,14,51,4,2,4,1,1,1.0,0.28,104.26,3958,0.0,2.0
6,1,13,3,1,5,9,27,4,2,4,1,1,1.0,0.34,104.6,2437,0.0,1.0
6,1,14,3,2,1,51,52,3,2,3,1,1,2.0,0.62,105.22,5793,1.0,1.0
6,1,15,3,1,1,45,52,4,2,2,2,1,2.0,0.61,105.83,2775,1.0,2.0
6,1,16,3,1,2,4,24,3,5,5,2,1,2.0,0.71,106.54,3894,1.0,1.0
6,1,17,3,1,3,21,4,4,5,5,2,1,2.0,0.75,107.29,3976,1.0,1.0
6,1,18,3,1,4,28,38,2,3,3,2,1,2.0,0.92,108.21,4150,1.0,1.0
6,1,19,3,1,5,11,25,2,5,5,2,1,2.0,0.51,108.72,4414,1.0,1.0
6,1,20,3,1,6,33,19,5,3,3,2,1,2.0,0.55,109.27,4331,1.0,1.0
6,1,21,3,2,1,19,29,3,5,3,1,1,2.0,0.79,110.06,5146,1.0,2.0
6,1,22,3,2,2,1,10,4,3,4,1,1,2.0,0.62,110.68,3978,1.0,1.0
6,1,23,3,2,3,26,12,4,3,4,1,1,2.0,0.5,111.18,2585,1.0,1.0
6,1,24,3,2,4,52,6,3,4,3,1,1,2.0,0.7,111.88,2238,1.0,1.0
6,1,25,3,2,5,11,21,2,5,2,1,1,2.0,0.85,112.73,2275,1.0,1.0
6,1,26,3,1,1,43,11,2,4,4,2,1,2.0,0.75,113.48,4917,1.0,2.0
6,1,27,3,1,2,2,7,4,5,5,2,1,2.0,0.9,114.38,4958,1.0,1.0
6,1,28,3,1,3,15,30,4,5,5,2,1,2.0,0.73,115.11,4838,1.0,1.0
6,1,29,3,1,4,9,34,5,2,2,2,1,2.0,0.89,116.0,5889,1.0,1.0
6,1,30,3,2,1,18,2,3,5,3,1,1,2.0,0.63,116.63,3267,1.0,2.0
6,1,31,3,2,2,11,50,5,4,5,1,1,2.0,0.53,117.16,2510,1.0,1.0
6,1,32,3,2,3,48,31,5,2,5,1,1,2.0,0.64,117.8,5047,1.0,1.0
6,1,33,3,2,4,52,16,5,3,5,1,1,2.0,0.81,118.61,2858,1.0,1.0
6,1,34,3,2,5,24,46,5,2,5,1,1,2.0,0.54,119.15,5334,1.0,1.0
6,1,35,3,2,6,42,26,2,4,2,1,1,2.0,0.74,119.89,5070,1.0,1.0
6,1,36,3,1,1,3,2,4,5,5,2,1,2.0,0.6,120.49,5664,1.0,2.0
6,1,37,3,1,2,24,18,4,2,2,2,1,2.0,0.73,121.22,1707,1.0,1.0
6,1,38,3,1,3,25,35,3,5,5,2,1,2.0,0.54,121.76,2836,1.0,1.0
6,1,39,3,2,1,37,12,2,4,2,1,1,2.0,0.68,122.44,6528,1.0,2.0
6,1,40,3,2,2,23,34,2,3,2,1,1,2.0,0.43,122.87,3017,1.0,1.0
6,1,41,3,2,3,40,47,5,2,5,1,1,2.0,0.61,123.48,3693,1.0,1.0
6,1,42,3,2,4,40,44,5,4,5,1,1,2.0,0.72,124.2,4296,1.0,1.0
6,1,43,3,1,1,22,11,5,3,3,2,1,2.0,0.63,124.83,3530,1.0,2.0
6,1,44,3,1,2,41,17,2,5,5,2,1,2.0,0.81,125.64,3690,1.0,1.0
6,1,45,3,1,3,31,17,2,3,3,2,1,2.0,0.59,126.23,1668,1.0,1.0
6,1,46,3,1,4,41,36,3,4,4,2,1,2.0,0.39,126.62,5982,1.0,1.0
6,1,47,3,1,5,6,32,4,2,2,2,1,2.0,0.52,127.14,3580,1.0,1.0
6,1,48,3,1,6,7,48,4,3,3,2,1,2.0,0.79,127.93,4666,1.0,1.0
6,1,49,3,2,1,6,3,5,4,5,1,1,2.0,0.65,128.58,3981,1.0,2.0
6,1,50,3,2,2,39,2,5,4,5,1,1,2.0,0.71,129.29,1675,1.0,1.0
6,1,51,3,2,3,3,9,2,4,2,1,1,2.0,0.78,130.07,2261,1.0,1.0
6,1,52,3,2,4,20,7,3,2,3,1,1,2.0,0.42,130.49,2937,1.0,1.0
6,1,53,3,2,5,25,47,3,4,3,1,1,2.0,0.59,131.08,5761,1.0,1.0
6,1,54,3,2,6,17,44,2,5,5,2,1,1.0,0.25,131.33,3192,0.0,2.0
6,1,55,3,1,1,11,6,2,5,5,2,1,2.0,0.55,131.88,6070,1.0,1.0
6,1,56,3,1,2,20,53,5,3,3,2,1,2.0,0.65,132.53,5329,1.0,1.0
6,1,57,3,1,3,9,44,5,2,2,2,1,2.0,0.85,133.38,4169,1.0,1.0
6,1,58,3,2,1,24,12,2,3,3,2,1,1.0,0.33,133.71,3440,0.0,1.0
6,1,59,3,2,2,26,24,5,2,5,1,1,2.0,0.81,134.52,1860,1.0,2.0
6,1,60,3,2,3,46,27,5,3,5,1,1,2.0,0.58,135.1,4232,1.0,1.0
6,1,61,3,2,4,20,6,3,2,3,1,1,2.0,0.67,135.77,4556,1.0,1.0
6,1,62,3,2,5,47,25,5,4,5,1,1,2.0,0.57,136.34,2515,1.0,1.0
6,1,63,3,1,1,25,28,5,3,5,1,1,1.0,0.4,136.74,1308,0.0,1.0
6,1,64,3,1,2,2,35,2,4,4,2,1,2.0,0.64,137.38,4757,1.0,2.0
6,1,65,3,1,3,37,25,2,4,4,2,1,2.0,0.72,138.1,3652,1.0,1.0
6,1,66,3,1,4,40,1,4,5,5,2,1,2.0,0.75,138.85,3904,1.0,1.0
6,1,67,3,1,5,32,37,5,4,4,2,1,2.0,0.66,139.51,6929,1.0,1.0
6,1,68,3,2,1,2,33,4,2,2,2,1,1.0,0.44,139.95,8234,0.0,1.0
6,1,69,3,2,2,7,19,3,2,3,1,1,2.0,0.94,140.89,3262,1.0,2.0
6,1,70,3,2,3,44,43,2,4,2,1,1,2.0,0.73,141.62,2553,1.0,1.0
6,1,71,3,1,1,52,49,3,4,3,1,1,1.0,0.33,141.95,4576,0.0,1.0
6,1,72,3,2,1,51,25,2,3,2,1,1,2.0,0.77,142.72,8343,1.0,1.0
6,1,73,3,2,2,11,13,2,3,2,1,1,2.0,0.67,143.39,2647,1.0,1.0
6,1,74,3,1,1,2,50,2,3,3,2,1,2.0,0.54,143.93,8250,1.0,2.0
6,1,75,3,1,2,3,45,5,2,2,2,1,2.0,0.72,144.65,1997,1.0,1.0
6,1,76,3,1,3,45,27,3,4,3,1,1,1.0,0.33,144.98,4315,0.0,2.0
6,1,77,3,1,4,19,18,4,3,3,2,1,2.0,0.63,145.61,3659,1.0,2.0
6,1,78,3,2,1,26,17,4,3,3,2,1,1.0,0.48,146.09,1623,0.0,1.0
6,1,79,3,2,2,2,44,4,2,4,1,1,2.0,0.89,146.98,3924,1.0,2.0
6,1,80,3,2,3,5,27,3,4,3,1,1,2.0,0.61,147.59,4132,1.0,1.0
6,1,81,3,2,4,28,10,2,5,2,1,1,2.0,0.68,148.27,3004,1.0,1.0
6,1,82,3,1,1,31,17,4,5,5,2,1,2.0,0.57,148.84,4290,1.0,2.0
6,1,83,3,1,2,45,11,3,2,2,2,1,2.0,0.75,149.59,5763,1.0,1.0
6,1,84,3,2,1,16,53,3,4,3,1,1,2.0,0.39,149.98,10378,1.0,2.0
7,2,1,1,2,1,17,34,4,5,5,2,1,2.0,0.78,0.78,10602,0.0,
7,2,2,1,2,2,26,43,2,4,2,1,1,1.0,0.36,1.14,3326,1.0,2.0
7,2,3,1,2,3,12,38,5,3,3,2,1,2.0,0.7,1.84,3782,0.0,2.0
7,2,4,1,2,4,21,33,5,3,3,2,1,2.0,0.81,2.65,10988,0.0,1.0
7,2,5,1,2,5,17,34,4,5,5,2,1,2.0,0.63,3.28,11922,0.0,1.0
7,2,6,1,2,6,5,13,2,5,2,1,1,1.0,0.32,3.6,5699,1.0,2.0
7,2,7,1,1,1,29,36,4,3,4,1,1,2.0,0.52,4.12,3916,0.0,1.0
7,2,8,1,1,2,51,23,5,3,3,2,1,1.0,0.14,4.26,9933,1.0,2.0
7,2,9,1,1,3,11,12,2,3,3,2,1,1.0,0.25,4.51,2477,1.0,1.0
7,2,10,1,1,4,18,45,3,2,3,1,1,2.0,0.7,5.21,5768,0.0,2.0
7,2,11,1,1,5,9,10,4,3,3,2,1,1.0,0.27,5.48,1614,1.0,2.0
7,2,12,1,1,6,44,49,2,4,2,1,1,2.0,0.51,5.99,4411,0.0,2.0
7,2,13,1,2,1,24,46,4,2,2,2,1,2.0,0.79,6.78,3608,0.0,2.0
7,2,14,1,2,2,1,41,5,2,2,2,1,2.0,0.58,7.36,3942,0.0,1.0
7,2,15,1,2,3,39,26,2,3,3,2,1,2.0,0.67,8.03,2213,0.0,1.0
7,2,16,1,1,1,21,49,3,4,3,1,1,2.0,0.67,8.7,4074,0.0,2.0
7,2,17,1,1,2,31,27,2,5,2,1,1,2.0,0.64,9.34,4661,0.0,1.0
7,2,18,1,2,1,24,27,3,5,3,1,1,1.0,0.38,9.72,2936,1.0,1.0
7,2,19,1,2,2,37,39,3,2,3,1,1,1.0,0.3,10.02,2928,1.0,1.0
7,2,20,1,2,3,18,21,3,5,5,2,1,2.0,0.47,10.49,5433,0.0,2.0
7,2,21,1,2,4,27,53,3,2,2,2,1,2.0,0.55,11.04,3933,0.0,1.0
7,2,22,1,2,5,4,22,2,4,4,2,1,2.0,0.7,11.74,4477,0.0,1.0
7,2,23,1,1,1,25,2,2,5,2,1,1,2.0,0.52,12.26,1335,0.0,2.0
7,2,24,1,1,2,38,11,5,3,5,1,1,2.0,0.63,12.89,5232,0.0,1.0
7,2,25,1,1,3,41,37,4,3,4,1,1,2.0,0.56,13.45,4748,0.0,1.0
7,2,26,1,1,4,34,23,5,4,4,2,1,1.0,0.19,13.64,4602,1.0,2.0
7,2,27,1,1,5,53,11,4,2,4,1,1,2.0,0.55,14.19,5280,0.0,2.0
7,2,28,1,2,1,18,19,3,4,4,2,1,2.0,0.62,14.81,2938,0.0,2.0
7,2,29,1,1,1,30,38,4,5,4,1,1,2.0,0.69,15.5,1890,0.0,2.0
7,2,30,1,1,2,13,2,4,2,4,1,1,2.0,0.65,16.15,1348,0.0,1.0
7,2,31,1,1,3,31,16,2,4,2,1,1,2.0,0.79,16.94,3467,0.0,1.0
7,2,32,1,2,1,36,39,4,3,3,2,1,2.0,0.64,17.58,4766,0.0,2.0
7,2,33,1,2,2,3,25,3,4,4,2,1,2.0,0.49,18.07,1037,0.0,1.0
7,2,34,1,1,1,38,5,4,3,3,2,1,1.0,0.33,18.4,4017,1.0,1.0
7,2,35,1,1,2,12,54,4,2,2,2,1,1.0,0.34,18.74,3309,1.0,1.0
7,2,36,1,1,3,22,10,4,3,4,1,1,2.0,0.7,19.44,5048,0.0,2.0
7,2,37,1,1,4,49,51,5,2,5,1,1,2.0,0.73,20.17,2730,0.0,1.0
7,2,38,1,2,1,37,47,5,2,2,2,1,2.0,0.82,20.99,3946,0.0,2.0
7,2,39,1,2,2,26,10,3,5,3,1,1,1.0,0.27,21.26,10490,1.0,2.0
7,2,40,1,2,3,2,35,5,4,5,1,1,1.0,0.36,21.62,2836,1.0,1.0
7,2,41,1,2,4,27,11,2,4,2,1,1,1.0,0.33,21.95,1184,1.0,1.0
7,2,42,1,1,1,26,52,5,3,5,1,1,2.0,0.6,22.55,1422,0.0,1.0
7,2,43,1,2,1,5,25,2,3,2,1,1,1.0,0.58,23.13,2179,1.0,1.0
7,2,44,1,2,2,33,5,5,2,2,2,1,2.0,0.64,23.77,1066,0.0,2.0
7,2,45,1,2,3,30,41,3,5,3,1,1,1.0,0.17,23.94,5036,1.0,2.0
7,2,46,1,2,4,38,22,3,5,5,2,1,2.0,0.88,24.82,3824,0.0,2.0
7,2,47,1,1,1,49,48,4,2,2,2,1,1.0,0.37,25.19,1893,1.0,1.0
7,2,48,1,2,1,16,38,3,2,3,1,1,1.0,0.2,25.39,3271,1.0,2.0
7,2,49,1,2,2,11,29,4,5,5,2,1,2.0,0.74,26.13,3713,0.0,2.0
7,2,50,1,2,3,8,48,3,2,2,2,1,2.0,0.82,26.95,6362,0.0,1.0
7,2,51,1,2,4,19,45,2,4,4,2,1,2.0,0.56,27.51,2985,0.0,1.0
7,2,52,1,2,5,42,47,4,3,3,2,1,2.0,0.68,28.19,5391,0.0,1.0
7,2,53,1,2,6,1,8,5,4,5,1,1,1.0,0.32,28.51,11477,1.0,2.0
7,2,54,1,1,1,16,24,5,4,5,1,1,2.0,0.53,29.04,4856,0.0,1.0
7,2,55,1,1,2,48,6,5,3,5,1,1,2.0,0.81,29.85,1587,0.0,1.0
7,2,56,1,1,3,31,53,2,3,3,2,1,1.0,0.33,30.18,7361,1.0,2.0
7,2,57,1,1,4,13,20,3,5,3,1,1,2.0,0.73,30.91,5192,0.0,2.0
7,2,58,1,2,1,12,37,2,3,2,1,1,1.0,0.25,31.16,1735,1.0,1.0
7,2,59,1,2,2,48,23,5,2,5,1,1,1.0,0.26,31.42,2462,1.0,1.0
7,2,60,1,1,1,10,25,3,4,3,1,1,2.0,0.7,32.12,2313,0.0,1.0
7,2,61,1,1,2,41,45,2,3,3,2,1,1.0,0.35,32.47,10298,1.0,2.0
7,2,62,1,2,1,3,12,4,5,5,2,1,2.0,0.88,33.35,2044,0.0,1.0
7,2,63,1,1,1,47,41,4,5,5,2,1,1.0,0.3,33.65,3032,1.0,1.0
7,2,64,1,1,2,53,51,5,2,2,2,1,1.0,0.59,34.24,7212,1.0,1.0
7,2,65,1,1,3,25,40,3,2,3,1,1,2.0,0.84,35.08,2089,0.0,2.0
7,2,66,1,2,1,52,49,2,5,2,1,1,1.0,0.1,35.18,5299,1.0,1.0
7,2,67,1,2,2,42,17,5,3,3,2,1,2.0,0.47,35.65,3660,0.0,2.0
7,2,68,1,2,3,46,44,3,5,5,2,1,2.0,0.6,36.25,3048,0.0,1.0
7,2,69,1,1,1,47,45,5,4,5,1,1,2.0,0.65,36.9,1595,0.0,2.0
7,2,70,1,1,2,31,48,3,4,4,2,1,1.0,0.33,37.23,6569,1.0,2.0
7,2,71,1,1,3,2,49,3,4,3,1,1,2.0,0.77,38.0,4512,0.0,2.0
7,2,72,1,1,4,13,9,4,5,4,1,1,2.0,0.58,38.58,5961,0.0,1.0
7,2,73,1,1,5,31,16,2,5,2,1,1,2.0,0.58,39.16,5592,0.0,1.0
7,2,74,1,2,1,5,6,2,5,2,1,1,1.0,0.31,39.47,2854,1.0,1.0
7,2,75,1,2,2,43,35,4,2,2,2,1,2.0,0.66,40.13,4690,0.0,2.0
7,2,76,1,2,3,48,6,5,4,5,1,1,1.0,0.37,40.5,4836,1.0,2.0
7,2,77,1,2,4,52,44,4,2,4,1,1,1.0,0.46,40.96,1967,1.0,1.0
7,2,78,1,2,5,9,17,2,5,2,1,1,1.0,0.41,41.37,1550,1.0,1.0
7,2,79,1,1,1,17,18,2,3,2,1,1,2.0,0.46,41.83,1502,0.0,1.0
7,2,80,1,1,2,17,41,2,4,2,1,1,2.0,0.75,42.58,4607,0.0,1.0
7,2,81,1,1,3,13,31,5,4,4,2,1,1.0,0.43,43.01,7812,1.0,2.0
7,2,82,1,1,4,29,32,3,2,2,2,1,1.0,0.41,43.42,2938,1.0,1.0
7,2,83,1,1,5,21,11,3,4,3,1,1,2.0,0.82,44.24,9361,0.0,2.0
7,2,84,1,1,6,30,51,5,2,5,1,1,2.0,0.71,44.95,1913,0.0,1.0
7,2,1,2,1,1,19,18,3,4,3,1,1,2.0,0.59,45.54,3555,0.0,
7,2,2,2,2,1,35,26,5,2,2,2,1,2.0,0.65,46.19,1491,0.0,2.0
7,2,3,2,2,2,2,39,5,2,2,2,1,2.0,0.38,46.57,4581,0.0,1.0
